SamplingTime, AccelerationX, AccelerationY, AccelerationZ, GyroX, GyroY, GyroZ, MagneticFieldX, MagneticFieldY, MagneticFieldZ
1618796874.5902982, , , , -0.035835, 0.000456, 0.047892, , , 
1618796874.6783, , , , -0.060267, 0.117010, -0.255609, , , 
1618796874.756099, , , , 0.143097, 0.261154, 0.134959, , , 
1618796874.8407931, , , , 0.203723, -0.350242, 0.119794, , , 
1618796874.913158, , , , -0.043210, 0.399712, -0.068729, , , 
1618796874.99024, , , , 0.020726, 0.263909, 0.010412, , , 
1618796875.059915, , , , 0.100168, 0.050623, -0.140629, , , 
1618796875.1407719, , , , 0.349153, -0.209000, -0.411289, , , 
1618796875.209628, , , , 0.027215, 0.048209, 0.013525, , , 
1618796875.290432, , , , 0.065219, 0.008723, -0.032019, , , 
1618796875.358893, , , , 0.009906, 0.106114, -0.077271, , , 
1618796875.440798, , , , 0.177610, -0.303023, 0.109063, , , 
1618796875.509945, , , , 0.130164, -0.096697, -0.080915, , , 
1618796875.590343, , , , 0.076531, -0.020221, -0.038155, , , 
1618796875.659006, , , , 0.176497, -0.150753, 0.017930, , , 
1618796875.7408009, , , , 0.195009, -0.060467, 0.004139, , , 
1618796875.8083081, , , , 0.161916, 0.014816, 0.017080, , , 
1618796875.890792, , , , 0.106004, -0.025637, -0.015027, , , 
1618796875.957841, , , , 0.112514, -0.021441, -0.054739, , , 
1618796875.989873, , , , 0.046165, -0.004087, -0.042986, , , 
1618796876.057672, , , , 0.116117, -0.005715, -0.004770, , , 
1618796876.089812, , , , 0.045183, 0.031019, 0.009303, , , 
1618796876.154282, , , , 0.305820, 0.072235, -0.001086, , , 
1618796876.190312, , , , 0.109450, 0.100224, 0.004848, , , 
1618796876.255166, , , , -0.032730, -0.044506, -0.039597, , , 
1618796876.2901201, , , , -0.073551, 0.047440, -0.039203, , , 
1618796876.357239, , , , -0.163475, 0.124311, -0.061853, , , 
1618796876.389818, , , , -0.052251, 0.045284, -0.020104, , , 
1618796876.458498, , , , -0.231453, 0.067832, -0.055902, , , 
1618796876.4901881, , , , -0.093112, -0.029599, -0.053294, , , 
1618796876.555459, , , , -0.030585, -0.357592, -0.006003, , , 
1618796876.590065, , , , -0.061612, -0.083960, -0.133149, , , 
1618796876.658901, , , , -0.034978, -0.339228, -0.102545, , , 
1618796876.689964, , , , -0.041554, -0.363731, -0.134919, , , 
1618796876.748127, , , , -0.075728, -0.325316, -0.116928, , , 
1618796876.8084059, , , , 0.077338, -0.207577, -0.136573, , , 
1618796876.840174, , , , 0.137374, -0.165326, -0.053649, , , 
1618796876.903606, , , , 0.254278, -0.223480, 0.053415, , , 
1618796876.940754, , , , 0.177020, -0.174138, -0.120993, , , 
1618796877.006833, , , , 0.157565, -0.236090, 0.021038, , , 
1618796877.0405002, , , , 0.003545, -0.063878, -0.049941, , , 
1618796877.108032, , , , -0.041760, -0.030715, 0.016891, , , 
1618796877.1397982, , , , -0.166570, -0.043059, 0.051986, , , 
1618796877.205625, , , , -0.221837, -0.008027, 0.063253, , , 
1618796877.240466, , , , -0.308076, 0.059555, 0.048184, , , 
1618796877.3067632, , , , -0.291661, 0.191084, 0.050389, , , 
1618796877.339957, , , , -0.195357, 0.126982, 0.054557, , , 
1618796877.409699, , , , -0.223550, 0.187124, 0.008425, , , 
1618796877.490783, , , , -0.001131, -0.045382, 0.092536, , , 
1618796877.5601811, , , , 0.057922, 0.073918, 0.078662, , , 
1618796877.640298, , , , 0.005242, 0.032878, 0.102243, , , 
1618796877.7099571, , , , -0.036666, -0.039587, 0.130216, , , 
1618796877.790281, , , , 0.058107, -0.060495, 0.132032, , , 
1618796877.8594599, , , , 0.076137, 0.027403, 0.120845, , , 
1618796877.9407768, , , , 0.201053, 0.097454, 0.115302, , , 
1618796878.010315, , , , 0.273659, -0.031098, 0.152588, , , 
1618796878.090303, , , , 0.238849, -0.077268, 0.096601, , , 
1618796878.159163, , , , 0.148124, -0.127542, 0.140509, , , 
1618796878.240808, , , , 0.300820, 0.064823, -0.016835, , , 
1618796878.310241, , , , 0.293472, 0.133170, -0.009322, , , 
1618796878.390302, , , , 0.194426, -0.058347, 0.004359, , , 
1618796878.460453, , , , -0.099662, 0.035742, -0.061728, , , 
1618796878.5407948, , , , 0.096467, -0.087808, -0.053937, , , 
1618796878.6108232, , , , 0.021756, -0.091216, -0.102506, , , 
1618796878.6907449, , , , 0.206215, -0.069331, -0.123841, , , 
1618796878.758731, , , , -0.154825, -0.134336, -0.234656, , , 
1618796878.790015, , , , -0.122767, 0.000696, -0.140615, , , 
1618796878.849663, , , , 0.109016, -0.137250, -0.110205, , , 
1618796878.9139152, , , , -0.173523, 0.077673, -0.156509, , , 
1618796878.990313, , , , 0.228927, -0.077240, -0.062387, , , 
1618796879.0587358, , , , -0.001045, -0.075804, -0.066205, , , 
1618796879.1407971, , , , 0.145860, -0.203127, -0.086494, , , 
1618796879.211842, , , , 0.202207, -0.246369, -0.102719, , , 
1618796879.290803, , , , 0.189569, -0.188687, -0.097384, , , 
1618796879.359064, , , , -0.008724, -0.013279, -0.100016, , , 
1618796879.440799, , , , 0.066326, -0.145180, -0.037670, , , 
1618796879.511818, , , , 0.045977, -0.062066, -0.082635, , , 
1618796879.590128, , , , 0.122579, -0.019913, -0.064288, , , 
1618796879.6587958, , , , 0.051676, -0.007671, -0.050349, , , 
1618796879.690168, , , , 0.036247, 0.012960, -0.065906, , , 
1618796879.7548099, , , , 0.035277, -0.004427, -0.022734, , , 
1618796879.790071, , , , 0.007878, -0.017963, -0.032145, , , 
1618796879.858475, , , , -0.035586, 0.039481, -0.015255, , , 
1618796879.889926, , , , -0.058741, 0.081010, -0.001309, , , 
1618796879.9566898, , , , -0.194952, 0.101573, 0.030787, , , 
1618796879.9903321, , , , -0.278911, 0.136032, 0.038506, , , 
1618796880.0626779, , , , -0.219937, 0.099298, 0.063070, , , 
1618796880.140818, , , , -0.231379, 0.186422, 0.009013, , , 
1618796880.2116718, , , , -0.215337, 0.132125, 0.009567, , , 
1618796880.2899609, , , , -0.173385, 0.080820, 0.055967, , , 
1618796880.356195, , , , -0.212417, 0.129153, 0.051184, , , 
1618796880.39039, , , , -0.165674, 0.079683, 0.070413, , , 
1618796880.461125, , , , -0.082548, 0.138636, 0.051735, , , 
1618796880.5406508, , , , -0.142519, 0.101152, 0.093453, , , 
1618796880.6140342, , , , -0.125140, 0.080319, 0.143587, , , 
1618796880.690829, , , , -0.158467, 0.170996, 0.094117, , , 
1618796880.761224, , , , -0.093311, 0.111294, 0.122044, , , 
1618796880.840826, , , , -0.116229, 0.144157, 0.143776, , , 
1618796880.915318, , , , -0.068332, 0.073755, 0.129297, , , 
1618796880.9897962, , , , -0.180005, 0.081076, 0.154165, , , 
1618796881.063459, , , , -0.138545, 0.094081, 0.055176, , , 
1618796881.1408339, , , , -0.016746, -0.018092, 0.047770, , , 
1618796881.21489, , , , -0.105851, -0.051495, 0.111272, , , 
1618796881.289762, , , , -0.031050, -0.175694, 0.024613, , , 
1618796881.364409, , , , -0.245043, -0.045765, 0.011714, , , 
1618796881.440825, , , , -0.150256, -0.095029, 0.027292, , , 
1618796881.514622, , , , -0.081154, -0.110776, 0.001368, , , 
1618796881.589909, , , , -0.067741, -0.124838, -0.002606, , , 
1618796881.656091, , , , 0.022043, -0.129768, -0.012041, , , 
1618796881.690534, , , , -0.034349, -0.077624, -0.023732, , , 
1618796881.761901, , , , 0.042916, -0.040611, -0.041064, , , 
1618796881.840819, , , , 0.042398, 0.035296, -0.098326, , , 
1618796881.914758, , , , 0.111128, -0.159348, -0.091033, , , 
1618796881.990055, , , , 0.107750, -0.097157, -0.109071, , , 
1618796882.05447, , , , -0.071361, -0.150822, -0.113667, , , 
1618796882.090666, , , , 0.006879, -0.162755, -0.156395, , , 
1618796882.161974, , , , -0.016548, -0.216872, -0.124543, , , 
1618796882.240827, , , , 0.084031, -0.253224, -0.111858, , , 
1618796882.314722, , , , 0.085582, -0.205222, -0.128412, , , 
1618796882.389813, , , , 0.144400, -0.214409, -0.079919, , , 
1618796882.464168, , , , 0.287769, -0.163359, -0.081728, , , 
1618796882.540904, , , , 0.166549, -0.048638, -0.103531, , , 
1618796882.615662, , , , 0.188700, -0.116430, -0.042750, , , 
1618796882.690834, , , , 0.182966, 0.066083, -0.012839, , , 
1618796882.758038, , , , 0.139855, 0.097373, 0.028484, , , 
1618796882.790152, , , , 0.156653, 0.109732, 0.008548, , , 
1618796882.854415, , , , 0.244519, -0.006216, 0.028179, , , 
1618796882.919905, , , , 0.230477, -0.010202, 0.053667, , , 
1618796882.990394, , , , 0.132252, -0.038771, -0.033644, , , 
1618796883.054844, , , , 0.061152, -0.063298, -0.016659, , , 
1618796883.09077, , , , 0.148464, -0.057962, -0.037153, , , 
1618796883.161851, , , , 0.139122, -0.097584, -0.046238, , , 
1618796883.240645, , , , 0.093189, -0.063324, -0.078488, , , 
1618796883.315421, , , , 0.107939, -0.083975, -0.038580, , , 
1618796883.3899999, , , , 0.009190, 0.001689, -0.025956, , , 
1618796883.455106, , , , -0.028091, 0.042450, -0.001387, , , 
1618796883.490354, , , , 0.009621, 0.061996, 0.002428, , , 
1618796883.562007, , , , -0.129759, 0.140609, 0.002738, , , 
1618796883.640833, , , , -0.203375, 0.142028, 0.021983, , , 
1618796883.7152429, , , , -0.157327, 0.212589, 0.025788, , , 
1618796883.7900882, , , , -0.317005, 0.255492, 0.008488, , , 
1618796883.855201, , , , -0.081319, 0.259485, 0.030159, , , 
1618796883.890717, , , , -0.061223, 0.265354, 0.055362, , , 
1618796883.962419, , , , -0.089656, 0.179086, 0.058704, , , 
1618796884.040848, , , , -0.130098, 0.171779, 0.023565, , , 
1618796884.115775, , , , -0.126807, -0.061664, 0.065879, , , 
1618796884.18995, , , , -0.150185, -0.059100, 0.011062, , , 
1618796884.258729, , , , -0.116506, -0.033214, -0.015361, , , 
1618796884.289997, , , , -0.025131, 0.020366, -0.005502, , , 
1618796884.357835, , , , -0.160470, -0.017206, 0.033162, , , 
1618796884.390193, , , , -0.078190, -0.067800, 0.013721, , , 
1618796884.456924, , , , -0.102642, -0.053458, 0.072437, , , 
1618796884.490372, , , , -0.102238, -0.042872, 0.050972, , , 
1618796884.5619822, , , , -0.162666, -0.042764, 0.108930, , , 
1618796884.640408, , , , -0.024102, -0.080255, 0.077051, , , 
1618796884.7084641, , , , 0.001097, -0.109990, -0.005009, , , 
1618796884.740172, , , , -0.018490, -0.115061, 0.018960, , , 
1618796884.805067, , , , -0.225584, -0.037572, -0.072020, , , 
1618796884.871241, , , , -0.076938, -0.098785, -0.059726, , , 
1618796884.940981, , , , -0.030240, -0.079512, -0.038237, , , 
1618796885.0068889, , , , -0.003851, -0.076658, -0.059251, , , 
1618796885.0403929, , , , 0.072423, -0.036020, -0.041123, , , 
1618796885.106477, , , , 0.043962, -0.016297, -0.057457, , , 
1618796885.1404738, , , , 0.084906, -0.072481, -0.051894, , , 
1618796885.213368, , , , 0.006866, -0.049546, -0.056070, , , 
1618796885.293192, , , , 0.044276, -0.043024, -0.091088, , , 
1618796885.370389, , , , 0.224021, -0.091318, -0.103497, , , 
1618796885.459147, , , , 0.272879, -0.026851, -0.111185, , , 
1618796885.542368, , , , 0.199596, -0.086636, -0.092230, , , 
1618796885.616084, , , , 0.160763, -0.105054, -0.119197, , , 
1618796885.69083, , , , 0.075451, -0.230716, -0.106975, , , 
1618796885.766365, , , , -0.000369, -0.253004, -0.107630, , , 
1618796885.840045, , , , 0.271046, -0.201988, -0.125080, , , 
1618796885.9066072, , , , 0.021494, 0.018306, -0.225245, , , 
1618796885.940398, , , , 0.137517, -0.025294, -0.236254, , , 
1618796886.013428, , , , 0.290900, 0.004227, -0.285072, , , 
1618796886.091992, , , , 0.424345, -0.107810, -0.289788, , , 
1618796886.161755, , , , 0.391024, -0.085424, -0.245188, , , 
1618796886.248214, , , , 0.153035, -0.104343, -0.145512, , , 
1618796886.322132, , , , 0.104769, -0.045355, -0.054282, , , 
1618796886.399622, , , , 0.115834, -0.083876, -0.052391, , , 
1618796886.477004, , , , 0.115380, -0.141894, -0.000014, , , 
1618796886.559723, , , , 0.101573, -0.084601, -0.041412, , , 
1618796886.641271, , , , 0.063791, -0.070317, -0.076212, , , 
1618796886.713162, , , , 0.082071, -0.136979, -0.072644, , , 
1618796886.789909, , , , 0.101037, -0.185980, -0.059705, , , 
1618796886.86654, , , , -0.115614, -0.082577, 0.036975, , , 
1618796886.9445891, , , , -0.255534, 0.030512, 0.091691, , , 
1618796887.030112, , , , -0.213653, 0.030583, 0.201206, , , 
1618796887.1137881, , , , -0.575782, 0.626993, 0.212871, , , 
1618796887.191145, , , , -0.226356, 0.085898, 0.375928, , , 
1618796887.267792, , , , -0.369195, 0.184041, 0.245253, , , 
1618796887.345911, , , , -0.286818, 0.071862, 0.185071, , , 
1618796887.415851, , , , -0.289572, -0.029863, 0.188064, , , 
1618796887.492999, , , , -0.187112, 0.070330, 0.099071, , , 
1618796887.578714, , , , -0.182230, -0.008605, 0.067401, , , 
1618796887.6640449, , , , -0.111583, 0.075492, 0.069839, , , 
1618796887.7417068, , , , -0.041534, 0.095086, 0.095736, , , 
1618796887.818913, , , , -0.134916, 0.047543, 0.066665, , , 
1618796887.8961859, , , , -0.039338, -0.037408, 0.122739, , , 
1618796887.9662662, , , , 0.309910, -0.050337, 0.110124, , , 
1618796888.04017, , , , -0.009830, -0.020268, 0.115151, , , 
1618796888.107595, , , , 0.022272, -0.059795, 0.013224, , , 
1618796888.1446471, , , , 0.072364, 0.017647, 0.087984, , , 
1618796888.225937, , , , 0.100420, 0.058153, 0.053841, , , 
1618796888.3033772, , , , -0.044220, 0.120713, 0.016526, , , 
1618796888.3809981, , , , 0.065857, 0.100737, 0.012662, , , 
1618796888.45779, , , , 0.297565, 0.076457, -0.021703, , , 
1618796888.490347, , , , 0.218481, 0.046617, -0.003600, , , 
1618796888.55669, , , , 0.006585, -0.004423, -0.050803, , , 
1618796888.624263, , , , -0.037973, -0.146768, -0.008643, , , 
1618796888.691664, , , , 0.112572, -0.095283, -0.059025, , , 
1618796888.75844, , , , 0.128383, -0.095577, -0.064717, , , 
1618796888.805748, , , , 0.041211, 0.064235, -0.141083, , , 
1618796888.87198, , , , 0.136285, -0.101255, -0.095559, , , 
1618796888.962786, , , , 0.093958, -0.140095, -0.081916, , , 
1618796889.044846, , , , 0.060794, -0.085308, -0.165470, , , 
1618796889.1232018, , , , 0.144205, -0.185047, -0.141402, , , 
1618796889.199136, , , , 0.259290, -0.139954, -0.085469, , , 
1618796889.27527, , , , 0.108870, 0.087636, -0.170312, , , 
1618796889.350663, , , , 0.336281, -0.110598, -0.180551, , , 
1618796889.426554, , , , -0.080996, 0.036406, -0.064952, , , 
1618796889.500751, , , , -0.034168, 0.073178, 0.005293, , , 
1618796889.56974, , , , 0.067641, -0.016860, 0.029304, , , 
1618796889.640121, , , , 0.010014, -0.044864, 0.009615, , , 
1618796889.7097359, , , , 0.150075, -0.090052, -0.025338, , , 
1618796889.7400599, , , , 0.081911, -0.091001, -0.017425, , , 
1618796889.806509, , , , 0.132601, -0.189782, -0.022213, , , 
1618796889.8751059, , , , 0.002130, -0.303523, 0.019390, , , 
1618796889.947054, , , , -0.196244, -0.115678, -0.019701, , , 
1618796890.015823, , , , -0.275782, -0.095322, -0.010142, , , 
1618796890.0907578, , , , -0.371282, -0.146261, 0.008609, , , 
1618796890.158836, , , , -0.123872, -0.245464, 0.036323, , , 
1618796890.19011, , , , -0.174860, -0.157892, -0.009803, , , 
1618796890.257395, , , , -0.215541, -0.128347, -0.011686, , , 
1618796890.326007, , , , -0.109874, -0.108496, -0.027705, , , 
1618796890.394562, , , , -0.094747, -0.064875, -0.024273, , , 
1618796890.462957, , , , -0.228297, 0.126024, -0.053020, , , 
1618796890.540852, , , , -0.059760, -0.006236, -0.035008, , , 
1618796890.60986, , , , -0.146934, 0.118990, -0.021911, , , 
1618796890.640306, , , , -0.169125, 0.044179, 0.021357, , , 
1618796890.707656, , , , -0.299928, 0.161112, 0.023628, , , 
1618796890.7403312, , , , -0.183648, 0.270607, 0.089832, , , 
1618796890.808192, , , , -0.033572, 0.159506, -0.061835, , , 
1618796890.840063, , , , 0.285976, -0.121199, 0.095625, , , 
1618796890.908453, , , , -0.191630, 0.308176, -0.038404, , , 
1618796890.940131, , , , -0.040072, 0.143676, 0.010323, , , 
1618796891.008237, , , , -0.242529, 0.163434, 0.083107, , , 
1618796891.080528, , , , -0.056876, 0.027198, 0.162118, , , 
1618796891.1469378, , , , -0.084156, 0.019922, 0.130687, , , 
1618796891.201384, , , , -0.128248, -0.019541, 0.295404, , , 
1618796891.279509, , , , -0.053997, 0.114897, 0.175277, , , 
1618796891.358794, , , , 0.074044, 0.072482, 0.104654, , , 
1618796891.4403338, , , , 0.017851, 0.024847, 0.063952, , , 
1618796891.507766, , , , 0.018761, -0.044047, 0.052644, , , 
1618796891.540337, , , , -0.064127, 0.044487, 0.011258, , , 
1618796891.614831, , , , 0.036242, 0.120394, -0.032517, , , 
1618796891.6898499, , , , 0.093275, 0.048756, -0.015951, , , 
1618796891.756957, , , , 0.140629, 0.074479, -0.022417, , , 
1618796891.822874, , , , 0.245795, 0.070601, -0.013220, , , 
1618796891.892386, , , , 0.041252, 0.010427, -0.003459, , , 
1618796891.961217, , , , 0.129559, -0.072733, -0.011739, , , 
1618796891.989911, , , , 0.094561, -0.082899, -0.031485, , , 
1618796892.058857, , , , 0.060782, -0.062972, -0.028672, , , 
1618796892.090169, , , , 0.114318, -0.110001, -0.047538, , , 
1618796892.158761, , , , 0.065095, -0.211074, -0.029296, , , 
1618796892.190082, , , , -0.003094, -0.019746, -0.098309, , , 
1618796892.258926, , , , 0.231192, -0.172345, -0.071746, , , 
1618796892.317194, , , , 0.063236, -0.109800, -0.110529, , , 
1618796892.400415, , , , 0.040105, -0.110403, -0.182089, , , 
1618796892.471396, , , , 0.112828, -0.178445, -0.180213, , , 
1618796892.542316, , , , 0.224403, -0.095095, -0.142661, , , 
1618796892.6157908, , , , 0.220525, -0.082594, -0.122023, , , 
1618796892.6920161, , , , 0.228742, -0.015121, -0.099423, , , 
1618796892.760203, , , , 0.158581, -0.076013, -0.091740, , , 
1618796892.790091, , , , 0.135152, 0.039405, -0.122364, , , 
1618796892.857691, , , , 0.294835, -0.218607, -0.078109, , , 
1618796892.9146872, , , , 0.189937, -0.051749, -0.060877, , , 
1618796892.9955091, , , , 0.051991, -0.106890, -0.098845, , , 
1618796893.0656881, , , , 0.019732, -0.138560, -0.026048, , , 
1618796893.1435661, , , , -0.042241, -0.090963, 0.028092, , , 
1618796893.222431, , , , -0.115432, -0.036914, 0.039427, , , 
1618796893.298524, , , , -0.136103, -0.066311, 0.063724, , , 
1618796893.356374, , , , -0.377257, 0.093630, 0.039604, , , 
1618796893.395304, , , , -0.221900, 0.083059, 0.055628, , , 
1618796893.465553, , , , -0.039162, -0.024983, 0.051654, , , 
1618796893.539928, , , , -0.190304, 0.013991, -0.011505, , , 
1618796893.6094809, , , , -0.150595, 0.034662, 0.007347, , , 
1618796893.639923, , , , -0.130542, 0.000662, 0.007661, , , 
1618796893.7092872, , , , -0.223021, 0.037406, -0.010506, , , 
1618796893.740186, , , , -0.241950, 0.040343, -0.003063, , , 
1618796893.808751, , , , 0.017408, -0.055579, 0.153182, , , 
1618796893.840209, , , , 0.133126, -0.028514, 0.121672, , , 
1618796893.908376, , , , -0.152585, -0.019365, 0.117036, , , 
1618796893.940141, , , , -0.163568, 0.109553, 0.039680, , , 
1618796894.0089579, , , , 0.117971, -0.175618, 0.130423, , , 
1618796894.0398378, , , , -0.037249, -0.013158, 0.078923, , , 
1618796894.109981, , , , 0.118359, -0.035212, 0.148460, , , 
1618796894.139968, , , , 0.419732, 0.007420, 0.224005, , , 
1618796894.212163, , , , -0.028377, 0.217290, 0.174936, , , 
1618796894.2908192, , , , 0.175944, 0.270671, 0.097830, , , 
1618796894.361711, , , , -0.026682, 0.309506, 0.132630, , , 
1618796894.444798, , , , -0.032948, 0.266857, 0.116563, , , 
1618796894.52638, , , , 0.007725, 0.231602, 0.046326, , , 
1618796894.6087608, , , , -0.060295, 0.173548, 0.040795, , , 
1618796894.6907449, , , , 0.039854, 0.100143, 0.019999, , , 
1618796894.7741141, , , , 0.044614, 0.079670, -0.003084, , , 
1618796894.8578491, , , , -0.039130, 0.112951, -0.018175, , , 
1618796894.940882, , , , -0.058362, 0.123348, -0.014658, , , 
1618796895.0225282, , , , -0.062491, 0.065238, 0.031298, , , 
1618796895.094417, , , , -0.018766, 0.098833, -0.014242, , , 
1618796895.165444, , , , 0.077128, 0.029108, 0.021530, , , 
1618796895.240919, , , , 0.081365, 0.000645, -0.012460, , , 
1618796895.314673, , , , 0.147924, 0.061834, -0.044055, , , 
1618796895.392775, , , , 0.313120, -0.003963, -0.139723, , , 
1618796895.47451, , , , -0.057375, -0.043942, -0.108633, , , 
1618796895.5493, , , , 0.135875, -0.129784, -0.106845, , , 
1618796895.606769, , , , 0.031992, -0.204715, -0.054776, , , 
1618796895.647013, , , , 0.056235, -0.098162, -0.121355, , , 
1618796895.704695, , , , 0.412884, -0.284883, -0.078530, , , 
1618796895.745613, , , , 0.420512, -0.371730, -0.108118, , , 
1618796895.816525, , , , -0.090460, -0.391692, -0.070588, , , 
1618796895.89053, , , , -0.069524, -0.358914, -0.149981, , , 
1618796895.9612188, , , , -0.153816, -0.283608, -0.081881, , , 
1618796895.9898438, , , , -0.061483, -0.222551, -0.117862, , , 
1618796896.0617452, , , , -0.009871, -0.210552, -0.105080, , , 
1618796896.1432052, , , , -0.004929, -0.138922, -0.036879, , , 
1618796896.225, , , , -0.116246, -0.031581, -0.057710, , , 
1618796896.308381, , , , 0.036028, 0.001079, -0.008104, , , 
1618796896.390182, , , , 0.020449, 0.012293, 0.018695, , , 
1618796896.4606152, , , , -0.098962, 0.017967, 0.017583, , , 
1618796896.48986, , , , -0.106213, -0.030123, 0.022124, , , 
1618796896.5625138, , , , -0.205927, -0.053588, 0.015086, , , 
1618796896.6442208, , , , -0.199933, -0.020794, -0.000313, , , 
1618796896.726522, , , , -0.818204, 0.233292, 0.016962, , , 
1618796896.810035, , , , -0.293130, 0.061884, 0.065720, , , 
1618796896.8909101, , , , -0.173020, 0.061746, 0.069250, , , 
1618796896.961609, , , , -0.126329, 0.118190, 0.101050, , , 
1618796897.043051, , , , -0.160379, 0.060073, 0.121737, , , 
1618796897.124319, , , , -0.090535, 0.115799, 0.063210, , , 
1618796897.2089782, , , , -0.034104, 0.040964, 0.010355, , , 
1618796897.290848, , , , 0.129107, -0.011103, -0.019445, , , 
1618796897.360313, , , , -0.167746, 0.054544, -0.103361, , , 
1618796897.389874, , , , -0.015411, -0.013963, -0.068177, , , 
1618796897.461842, , , , -0.222682, -0.015488, -0.070215, , , 
1618796897.543211, , , , 0.111171, 0.003614, 0.007110, , , 
1618796897.625871, , , , 0.022836, -0.000006, -0.010947, , , 
1618796897.710362, , , , 0.037559, 0.059030, 0.003856, , , 
1618796897.792855, , , , 0.198781, 0.016247, 0.057958, , , 
1618796897.87938, , , , 0.285884, 0.123059, 0.198310, , , 
1618796897.960469, , , , 0.152116, 0.184968, 0.190875, , , 
1618796898.045906, , , , 0.048004, 0.054406, 0.092021, , , 
1618796898.1260471, , , , 0.080516, 0.000801, 0.010254, , , 
1618796898.2104259, , , , -0.046602, -0.108457, -0.052154, , , 
1618796898.291106, , , , -0.030653, -0.198865, -0.100356, , , 
1618796898.364841, , , , -0.083157, -0.196883, -0.161694, , , 
1618796898.44153, , , , 0.181689, -0.232085, -0.072520, , , 
1618796898.52487, , , , 0.121119, -0.058460, -0.079094, , , 
1618796898.602099, , , , 0.280887, -0.088464, -0.063568, , , 
1618796898.673307, , , , 0.305663, -0.232281, -0.031233, , , 
1618796898.7464252, , , , 0.089498, -0.187048, -0.083738, , , 
1618796898.8166308, , , , 0.318811, -0.211289, -0.060804, , , 
1618796898.890188, , , , 0.204069, -0.220145, -0.056674, , , 
1618796898.9611192, , , , 0.202372, -0.203973, -0.062890, , , 
1618796898.989908, , , , 0.104174, -0.158393, -0.076276, , , 
1618796899.060369, , , , 0.136051, -0.030611, -0.066295, , , 
1618796899.116838, , , , -0.039735, -0.085976, -0.045550, , , 
1618796899.2011452, , , , 0.018987, -0.100762, -0.028034, , , 
1618796899.25787, , , , -0.092583, -0.145531, -0.011998, , , 
1618796899.298337, , , , -0.135785, -0.188613, -0.027814, , , 
1618796899.356089, , , , -0.132890, -0.132386, -0.026611, , , 
1618796899.3964748, , , , -0.188622, -0.182173, -0.015826, , , 
1618796899.4517121, , , , -0.563757, 0.132660, -0.022932, , , 
1618796899.490917, , , , -0.390240, 0.089106, 0.005031, , , 
1618796899.559422, , , , -0.203999, -0.006384, -0.013275, , , 
1618796899.61385, , , , -0.066510, -0.054165, -0.024065, , , 
1618796899.652892, , , , -0.142871, -0.157839, -0.006065, , , 
1618796899.707823, , , , 0.019373, -0.047346, -0.081154, , , 
1618796899.747624, , , , -0.020929, -0.154214, -0.024258, , , 
1618796899.8028178, , , , -0.210905, -0.037822, -0.032667, , , 
1618796899.842184, , , , -0.044036, -0.060405, -0.065899, , , 
1618796899.91715, , , , -0.220909, -0.031763, -0.017648, , , 
1618796899.9898582, , , , -0.191685, -0.074437, 0.003977, , , 
1618796900.058372, , , , -0.222707, 0.003760, 0.057694, , , 
1618796900.11293, , , , -0.412304, 0.293452, 0.159944, , , 
1618796900.1523561, , , , 0.089643, -0.079383, 0.075469, , , 
1618796900.20709, , , , -0.240470, 0.190221, 0.026270, , , 
1618796900.2467499, , , , -0.208220, 0.181109, 0.040988, , , 
1618796900.301672, , , , 0.021668, 0.030911, 0.093825, , , 
1618796900.340761, , , , -0.266456, 0.174658, 0.084892, , , 
1618796900.409873, , , , 0.040641, 0.196897, 0.080847, , , 
1618796900.464627, , , , 0.025064, 0.215175, 0.073378, , , 
1618796900.504152, , , , 0.098993, 0.177581, 0.109108, , , 
1618796900.5584211, , , , -0.004690, 0.202937, 0.102687, , , 
1618796900.5995278, , , , 0.032242, 0.128574, 0.125867, , , 
1618796900.654745, , , , -0.049397, 0.164106, 0.088622, , , 
1618796900.6942449, , , , -0.043130, 0.114957, 0.102933, , , 
1618796900.7627811, , , , -0.031614, 0.021083, 0.148371, , , 
1618796900.839872, , , , 0.038379, 0.138335, 0.041069, , , 
1618796900.9093919, , , , -0.056307, 0.149966, 0.079774, , , 
1618796900.964737, , , , 0.066596, 0.017498, 0.101861, , , 
1618796901.048967, , , , 0.141932, 0.095829, 0.063726, , , 
1618796901.104823, , , , 0.096665, 0.030520, 0.028468, , , 
1618796901.1441321, , , , 0.162131, -0.036092, 0.013654, , , 
1618796901.2137542, , , , 0.129569, -0.103355, -0.022436, , , 
1618796901.290852, , , , 0.058946, -0.196448, -0.083225, , , 
1618796901.360358, , , , 0.075202, -0.245187, -0.110858, , , 
1618796901.415442, , , , 0.038525, -0.346691, -0.091062, , , 
1618796901.4991732, , , , 0.197744, -0.264598, -0.080816, , , 
1618796901.552484, , , , 0.008785, -0.115946, -0.125523, , , 
1618796901.593257, , , , -0.064158, -0.080898, -0.100375, , , 
1618796901.663441, , , , -0.041226, -0.114845, -0.076760, , , 
1618796901.7409039, , , , 0.092551, -0.102530, -0.044834, , , 
1618796901.809649, , , , 0.122464, 0.032160, -0.064478, , , 
1618796901.8645759, , , , 0.469742, 0.003452, -0.173331, , , 
1618796901.904762, , , , 0.577452, 0.030887, -0.203398, , , 
1618796901.959334, , , , 0.705010, -0.218733, -0.097051, , , 
1618796901.999888, , , , 0.501356, -0.237733, -0.107620, , , 
1618796902.056594, , , , 0.156497, -0.061878, -0.185272, , , 
1618796902.0973458, , , , 0.146724, -0.200363, -0.071621, , , 
1618796902.152734, , , , 0.345187, -0.303919, -0.121872, , , 
1618796902.193341, , , , 0.245319, -0.412447, -0.127887, , , 
1618796902.265404, , , , 0.257955, -0.235052, -0.092978, , , 
1618796902.3411222, , , , 0.219823, -0.132116, -0.106494, , , 
1618796902.412005, , , , 0.155854, -0.150089, -0.049461, , , 
1618796902.466965, , , , 0.204572, -0.090818, -0.064223, , , 
1618796902.552024, , , , 0.082708, -0.079712, -0.010088, , , 
1618796902.607261, , , , 0.007764, 0.003121, 0.005246, , , 
1618796902.648001, , , , -0.112265, -0.061044, 0.034225, , , 
1618796902.703071, , , , -0.249060, 0.049416, 0.030894, , , 
1618796902.743881, , , , -0.481931, 0.039725, 0.016986, , , 
1618796902.8187199, , , , -0.378523, 0.024983, 0.055656, , , 
1618796902.892394, , , , -0.672017, 0.137600, 0.032338, , , 
1618796902.962834, , , , -0.374586, 0.060261, 0.064749, , , 
1618796903.04102, , , , -0.271539, 0.211610, 0.004919, , , 
1618796903.11113, , , , -0.194152, 0.181189, 0.001105, , , 
1618796903.165297, , , , -0.141854, 0.156150, 0.052915, , , 
1618796903.2507071, , , , -0.110572, 0.326768, 0.083396, , , 
1618796903.305517, , , , -0.011369, 0.095990, 0.192413, , , 
1618796903.346674, , , , -0.058661, 0.193564, 0.157031, , , 
1618796903.402017, , , , -0.125908, 0.177159, 0.160608, , , 
1618796903.442605, , , , -0.059687, 0.113456, 0.181676, , , 
1618796903.5144758, , , , -0.080729, 0.199407, 0.107559, , , 
1618796903.591395, , , , 0.066725, 0.168091, 0.168683, , , 
1618796903.662671, , , , -0.056255, 0.029354, 0.123949, , , 
1618796903.7411242, , , , 0.034652, 0.003380, 0.105157, , , 
1618796903.811789, , , , -0.094879, -0.086366, 0.107876, , , 
1618796903.890864, , , , 0.198254, -0.053205, 0.083353, , , 
1618796903.963647, , , , -0.190417, -0.016999, 0.029234, , , 
1618796904.043484, , , , -0.086976, -0.057221, 0.019989, , , 
1618796904.117064, , , , 0.047639, 0.007391, -0.018144, , , 
1618796904.1953201, , , , 0.286990, -0.071439, -0.035732, , , 
1618796904.271294, , , , 0.027715, -0.074826, -0.061982, , , 
1618796904.3488522, , , , -0.008445, -0.035872, -0.053740, , , 
1618796904.407604, , , , 0.126740, 0.142827, -0.111429, , , 
1618796904.452286, , , , 0.284237, -0.012807, -0.067881, , , 
1618796904.5106502, , , , 0.105998, -0.009525, -0.093369, , , 
1618796904.556419, , , , 0.487206, 0.049431, -0.141666, , , 
1618796904.614928, , , , 0.492813, -0.151249, -0.117830, , , 
1618796904.708479, , , , 0.244688, -0.360330, -0.195578, , , 
1618796904.766645, , , , 0.327549, -0.479220, -0.230663, , , 
1618796904.84251, , , , 0.123364, -0.398761, -0.279040, , , 
1618796904.927432, , , , 0.115846, -0.103653, -0.161555, , , 
1618796905.013825, , , , 0.095527, -0.157585, -0.054501, , , 
1618796905.099551, , , , -0.086201, -0.096437, -0.039935, , , 
1618796905.157897, , , , -0.107998, -0.090833, 0.018852, , , 
1618796905.2024899, , , , -0.086432, -0.095768, 0.014508, , , 
1618796905.260742, , , , -0.130242, -0.045329, 0.025020, , , 
1618796905.3054829, , , , -0.077285, -0.026307, 0.032357, , , 
1618796905.3635092, , , , -0.112271, 0.041092, 0.034956, , , 
1618796905.4574351, , , , -0.019523, 0.066792, 0.045962, , , 
1618796905.515634, , , , -0.057509, 0.027886, 0.105625, , , 
1618796905.609168, , , , -0.007793, 0.202231, 0.139562, , , 
1618796905.684856, , , , -0.194011, 0.221617, 0.122120, , , 
1618796905.745481, , , , -0.228023, 0.177229, 0.118075, , , 
1618796905.8207479, , , , -0.168574, 0.187951, 0.126163, , , 
1618796905.898309, , , , -0.393486, 0.292061, 0.108999, , , 
1618796905.9435558, , , , -0.201333, 0.249557, 0.105647, , , 
1618796906.020063, , , , -0.464114, 0.208516, 0.100284, , , 
1618796906.099258, , , , -0.238278, 0.017323, 0.165937, , , 
1618796906.157593, , , , -0.163238, 0.042379, 0.141114, , , 
1618796906.20329, , , , -0.094857, 0.009414, 0.254793, , , 
1618796906.2616, , , , -0.156936, 0.087476, 0.063422, , , 
1618796906.3061728, , , , -0.100485, 0.033086, 0.117867, , , 
1618796906.364728, , , , -0.081304, 0.059151, 0.056362, , , 
1618796906.441026, , , , -0.091672, 0.066602, -0.006446, , , 
1618796906.518817, , , , -0.029238, -0.036123, -0.005776, , , 
1618796906.5961518, , , , 0.078720, -0.023443, 0.052262, , , 
1618796906.6721559, , , , -0.074595, 0.076429, -0.016281, , , 
1618796906.767963, , , , -0.061544, 0.095267, -0.012044, , , 
1618796906.84508, , , , 0.017204, 0.063150, -0.037272, , , 
1618796906.9227118, , , , 0.066475, 0.040229, -0.047954, , , 
1618796907.0021, , , , 0.095642, -0.031735, -0.057001, , , 
1618796907.060637, , , , 0.221821, -0.065789, -0.073726, , , 
1618796907.106056, , , , 0.269520, -0.058885, -0.036335, , , 
1618796907.164444, , , , 0.001837, -0.102070, -0.023197, , , 
1618796907.24155, , , , 0.108395, -0.166991, 0.017300, , , 
1618796907.3195028, , , , 0.247448, -0.056438, -0.029008, , , 
1618796907.416545, , , , 0.055189, -0.013946, -0.058502, , , 
1618796907.49578, , , , 0.112120, -0.114291, -0.060325, , , 
1618796907.5724611, , , , 0.259534, -0.188108, -0.060799, , , 
1618796907.651993, , , , 0.222373, -0.181186, -0.081918, , , 
1618796907.729131, , , , 0.514304, -0.287420, -0.136051, , , 
1618796907.805474, , , , 0.187986, -0.332251, -0.103911, , , 
1618796907.864748, , , , 0.264460, -0.267404, -0.211685, , , 
1618796907.9626431, , , , 0.181409, -0.217589, -0.150147, , , 
1618796908.040225, , , , 0.110860, -0.123847, -0.086115, , , 
1618796908.117404, , , , 0.039094, -0.144216, -0.077495, , , 
1618796908.1948152, , , , -0.017521, -0.068841, -0.037330, , , 
1618796908.2710838, , , , -0.014645, -0.079674, 0.011370, , , 
1618796908.35148, , , , -0.002100, 0.006955, 0.005161, , , 
1618796908.408982, , , , -0.144609, -0.007167, 0.030306, , , 
1618796908.454867, , , , -0.157702, 0.004145, -0.002059, , , 
1618796908.512919, , , , -0.149671, -0.144184, 0.078085, , , 
1618796908.5582008, , , , -0.307158, -0.074163, 0.035276, , , 
1618796908.616469, , , , -0.451828, 0.084691, -0.000516, , , 
1618796908.713274, , , , -0.269819, 0.090538, 0.011591, , , 
1618796908.789938, , , , -0.145833, 0.045352, -0.006095, , , 
1618796908.869979, , , , -0.278291, 0.006195, 0.054577, , , 
1618796908.946436, , , , -0.218612, 0.129503, 0.060570, , , 
1618796909.0233111, , , , -0.245409, 0.222371, 0.037363, , , 
1618796909.103147, , , , -0.141011, 0.094732, 0.088916, , , 
1618796909.1795669, , , , -0.052798, -0.019620, 0.117427, , , 
1618796909.257251, , , , -0.260062, 0.165405, 0.050037, , , 
1618796909.316966, , , , -0.059879, 0.331937, 0.148192, , , 
1618796909.414484, , , , 0.052920, 0.372569, 0.127516, , , 
1618796909.489917, , , , 0.000227, 0.319322, 0.149434, , , 
1618796909.56692, , , , -0.004825, 0.251258, 0.115139, , , 
1618796909.644594, , , , 0.120533, 0.195340, 0.068656, , , 
1618796909.7215781, , , , 0.194630, 0.162039, 0.036810, , , 
1618796909.799848, , , , 0.126445, 0.208630, 0.005038, , , 
1618796909.856718, , , , 0.277731, 0.166910, -0.010408, , , 
1618796909.907193, , , , 0.329158, 0.051085, -0.004019, , , 
1618796909.9646811, , , , 0.183880, 0.024622, -0.044362, , , 
1618796910.0400581, , , , 0.201196, -0.004885, -0.087458, , , 
1618796910.117161, , , , 0.246583, -0.069212, -0.032514, , , 
1618796910.2137198, , , , 0.221470, -0.019085, -0.033245, , , 
1618796910.2903972, , , , 0.201880, -0.041216, -0.179342, , , 
1618796910.369604, , , , 0.116199, -0.047172, -0.077684, , , 
1618796910.450083, , , , 0.103702, -0.007349, -0.125065, , , 
1618796910.526873, , , , 0.187393, -0.056408, -0.127965, , , 
1618796910.607744, , , , 0.139248, -0.179248, -0.072579, , , 
1618796910.665501, , , , 0.135953, -0.244050, -0.124103, , , 
1618796910.7623281, , , , 0.234540, -0.274252, -0.129327, , , 
1618796910.840035, , , , 0.256640, -0.399997, -0.113862, , , 
1618796910.914923, , , , 0.089460, -0.268529, -0.090947, , , 
1618796910.989954, , , , 0.036690, -0.214806, -0.031733, , , 
1618796911.066187, , , , -0.021755, -0.207850, 0.009502, , , 
1618796911.146813, , , , -0.263939, -0.126393, 0.027284, , , 
1618796911.202969, , , , -0.250021, -0.069182, 0.016238, , , 
1618796911.248495, , , , -0.239739, -0.107448, 0.015295, , , 
1618796911.3047361, , , , -0.295942, -0.048528, 0.039436, , , 
1618796911.348353, , , , -0.263834, 0.008530, 0.006872, , , 
1618796911.403864, , , , -0.293016, -0.002538, 0.030508, , , 
1618796911.449965, , , , -0.144229, -0.116359, 0.019182, , , 
1618796911.5061522, , , , -0.305554, -0.005829, 0.036593, , , 
1618796911.552721, , , , -0.332479, 0.029271, 0.081105, , , 
1618796911.609628, , , , -0.249956, 0.131998, 0.073569, , , 
1618796911.655649, , , , -0.359250, 0.154323, 0.092976, , , 
1618796911.713156, , , , -0.185755, 0.216155, 0.139473, , , 
1618796911.75846, , , , 0.008388, 0.007798, 0.130011, , , 
1618796911.8151522, , , , -0.375775, 0.113083, 0.211911, , , 
1618796911.891252, , , , 0.028443, 0.202845, 0.177625, , , 
1618796911.9677548, , , , -0.123836, 0.258098, 0.129310, , , 
1618796912.065223, , , , -0.273921, 0.108202, 0.046605, , , 
1618796912.141865, , , , -0.079216, -0.063603, 0.189169, , , 
1618796912.219116, , , , 0.162265, -0.015672, -0.009461, , , 
1618796912.296935, , , , -0.144874, -0.190876, -0.017838, , , 
1618796912.353526, , , , 0.013568, -0.120557, -0.058191, , , 
1618796912.40055, , , , -0.153083, -0.124371, -0.067270, , , 
1618796912.4571729, , , , -0.120510, -0.213274, -0.045735, , , 
1618796912.503992, , , , -0.136500, -0.301481, -0.090808, , , 
1618796912.561184, , , , 0.104404, -0.385141, -0.043596, , , 
1618796912.60688, , , , -0.161980, -0.196377, -0.066068, , , 
1618796912.66401, , , , -0.039544, -0.169974, -0.051067, , , 
1618796912.74198, , , , 0.047336, -0.047920, -0.069592, , , 
1618796912.8394852, , , , 0.037822, -0.149303, -0.090438, , , 
1618796912.902543, , , , 0.176578, 0.047492, -0.159834, , , 
1618796912.9508638, , , , 0.403930, -0.121457, -0.150380, , , 
1618796913.011588, , , , 0.151565, -0.110002, -0.187433, , , 
1618796913.116763, , , , -0.024693, 0.069858, -0.163958, , , 
1618796913.196836, , , , 0.321604, -0.239620, -0.084246, , , 
1618796913.2757711, , , , -0.030547, -0.103074, -0.120741, , , 
1618796913.356577, , , , 0.035246, -0.056992, -0.097283, , , 
1618796913.419561, , , , 0.265011, -0.135995, -0.049148, , , 
1618796913.5336509, , , , 0.257927, -0.158561, -0.012329, , , 
1618796913.600743, , , , 0.224759, -0.072744, -0.030364, , , 
1618796913.658092, , , , 0.303656, 0.052285, -0.050648, , , 
1618796913.7504969, , , , 0.169283, 0.048272, -0.022021, , , 
1618796913.820503, , , , 0.072131, 0.005158, -0.017824, , , 
1618796913.9269419, , , , -0.149829, 0.025779, 0.014071, , , 
1618796914.008233, , , , -0.269571, 0.081966, -0.012559, , , 
1618796914.0648909, , , , -0.492202, 0.197730, -0.023528, , , 
1618796914.167297, , , , -0.299354, 0.095042, -0.032467, , , 
1618796914.2485862, , , , -0.249209, 0.149880, 0.004189, , , 
1618796914.339567, , , , -0.177984, 0.135142, 0.009001, , , 
1618796914.42433, , , , -0.225530, 0.157219, 0.036594, , , 
1618796914.503741, , , , -0.151930, 0.247355, 0.112034, , , 
1618796914.570599, , , , 0.111551, 0.268532, 0.094401, , , 
1618796914.660429, , , , 0.006171, 0.296828, 0.076026, , , 
1618796914.775168, , , , -0.162146, 0.197912, 0.139146, , , 
1618796914.868781, , , , -0.106296, 0.011992, 0.051580, , , 
1618796914.961349, , , , 0.063314, -0.115712, 0.079860, , , 
1618796915.05205, , , , -0.079324, 0.047418, 0.017074, , , 
1618796915.113054, , , , -0.086543, -0.011754, 0.046957, , , 
1618796915.202416, , , , 0.009170, -0.129127, -0.001374, , , 
1618796915.2511559, , , , 0.042009, -0.050482, -0.009451, , , 
1618796915.308936, , , , 0.035827, -0.110321, 0.011663, , , 
1618796915.358232, , , , 0.007887, -0.083992, -0.043558, , , 
1618796915.416288, , , , 0.030757, -0.061701, -0.047207, , , 
1618796915.516758, , , , 0.144666, -0.227743, -0.028883, , , 
1618796915.5983438, , , , 0.209027, -0.060215, -0.058229, , , 
1618796915.65485, , , , 0.194354, -0.068045, -0.049367, , , 
1618796915.7023911, , , , 0.132207, 0.024915, -0.076594, , , 
1618796915.759129, , , , -0.056019, -0.062089, -0.052755, , , 
1618796915.805904, , , , 0.021968, -0.190695, -0.013010, , , 
1618796915.863172, , , , -0.002503, -0.072137, -0.026822, , , 
1618796915.910918, , , , 0.151129, -0.156861, 0.033397, , , 
1618796915.967651, , , , 0.031382, -0.064790, -0.005334, , , 
1618796916.045858, , , , 0.110917, -0.330268, 0.098089, , , 
1618796916.1239471, , , , 0.273553, -0.198830, -0.020458, , , 
1618796916.199006, , , , 0.196553, -0.160063, -0.156179, , , 
1618796916.254974, , , , 0.222665, -0.269125, -0.096224, , , 
1618796916.3013248, , , , 0.296484, -0.262134, -0.140496, , , 
1618796916.355459, , , , 0.192997, -0.202389, -0.118194, , , 
1618796916.401895, , , , 0.136455, -0.120550, -0.082877, , , 
1618796916.476077, , , , 0.231569, -0.174139, -0.080603, , , 
1618796916.5558538, , , , 0.212539, -0.122301, -0.069831, , , 
1618796916.613919, , , , 0.247339, -0.196588, -0.034500, , , 
1618796916.7166429, , , , 0.206144, -0.208184, -0.034456, , , 
1618796916.797474, , , , 0.003552, -0.050396, -0.020559, , , 
1618796916.8744102, , , , -0.064692, -0.059744, 0.015642, , , 
1618796916.9502301, , , , -0.146662, -0.039082, 0.043530, , , 
1618796917.004461, , , , -0.195479, 0.041847, 0.041339, , , 
1618796917.050435, , , , -0.316290, 0.147656, 0.035464, , , 
1618796917.1057339, , , , -0.459945, 0.304280, 0.053614, , , 
1618796917.151192, , , , -0.582146, 0.281783, 0.073070, , , 
1618796917.205646, , , , -0.133032, 0.056729, 0.139109, , , 
1618796917.251114, , , , -0.232325, 0.304192, 0.023815, , , 
1618796917.3064342, , , , -0.147322, 0.038701, 0.096125, , , 
1618796917.353265, , , , -0.126291, 0.062950, 0.082844, , , 
1618796917.408515, , , , -0.135639, 0.158065, 0.096613, , , 
1618796917.454489, , , , -0.098136, 0.122904, 0.121625, , , 
1618796917.508947, , , , -0.053634, 0.190414, 0.137386, , , 
1618796917.555937, , , , 0.021174, 0.153213, 0.135102, , , 
1618796917.6110659, , , , -0.170366, 0.093195, 0.111283, , , 
1618796917.657543, , , , -0.036050, -0.022871, 0.174235, , , 
1618796917.713917, , , , -0.081282, 0.115056, 0.062187, , , 
1618796917.76054, , , , 0.024852, 0.041361, 0.122892, , , 
1618796917.815311, , , , -0.148734, 0.090900, 0.112720, , , 
1618796917.912672, , , , -0.041691, -0.048144, 0.182296, , , 
1618796917.990047, , , , 0.041693, -0.040844, -0.006446, , , 
1618796918.0657291, , , , -0.064779, 0.037271, -0.002066, , , 
1618796918.141502, , , , -0.026028, -0.040142, -0.112606, , , 
1618796918.217239, , , , 0.003260, -0.032948, -0.076814, , , 
1618796918.297497, , , , -0.026085, -0.088801, -0.081631, , , 
1618796918.3733501, , , , -0.158040, -0.110486, -0.099871, , , 
1618796918.4518719, , , , -0.034971, -0.210844, -0.163793, , , 
1618796918.530885, , , , 0.311997, -0.296471, -0.134069, , , 
1618796918.608083, , , , -0.003900, -0.045340, -0.212907, , , 
1618796918.683879, , , , 0.713838, -0.261464, -0.185642, , , 
1618796918.76151, , , , 0.261669, -0.220852, -0.230446, , , 
1618796918.8161979, , , , 0.595143, -0.245582, -0.249548, , , 
1618796918.895008, , , , -0.143375, -0.126633, -0.336452, , , 
1618796918.9715462, , , , 0.443327, -0.145027, -0.206150, , , 
1618796919.046212, , , , 0.202491, -0.238291, -0.101789, , , 
1618796919.122099, , , , 0.158714, -0.130946, -0.080703, , , 
1618796919.2002048, , , , 0.010667, -0.106725, -0.005982, , , 
1618796919.254669, , , , 0.031013, -0.159605, 0.010488, , , 
1618796919.30119, , , , 0.079222, -0.076032, 0.054515, , , 
1618796919.3559241, , , , 0.013793, -0.059994, 0.009591, , , 
1618796919.4033608, , , , -0.011203, -0.035029, 0.040883, , , 
1618796919.458589, , , , -0.008379, -0.089476, 0.027685, , , 
1618796919.505684, , , , -0.111545, -0.082022, 0.067892, , , 
1618796919.560689, , , , -0.073500, -0.003152, -0.007702, , , 
1618796919.6072521, , , , -0.007480, -0.021126, 0.046725, , , 
1618796919.6627269, , , , -0.182950, 0.018184, 0.046857, , , 
1618796919.709804, , , , -0.257670, 0.146451, 0.086300, , , 
1618796919.764948, , , , -0.119907, 0.151866, 0.091753, , , 
1618796919.84148, , , , -0.222401, 0.157270, 0.082696, , , 
1618796919.923316, , , , -0.273585, 0.189500, 0.067823, , , 
1618796920.001821, , , , -0.237923, 0.096007, 0.108099, , , 
1618796920.0591888, , , , -0.286359, 0.166407, 0.085257, , , 
1618796920.108519, , , , -0.279363, 0.122484, 0.103707, , , 
1618796920.1671882, , , , -0.020218, 0.198611, 0.109003, , , 
1618796920.2486129, , , , -0.203729, 0.228764, 0.097695, , , 
1618796920.2994561, , , , -0.127774, 0.184516, 0.072521, , , 
1618796920.357667, , , , -0.242052, 0.159133, 0.071031, , , 
1618796920.408504, , , , -0.135190, 0.125748, 0.068818, , , 
1618796920.466601, , , , -0.144229, 0.184205, 0.081435, , , 
1618796920.574094, , , , -0.005189, 0.189860, 0.123143, , , 
1618796920.6570811, , , , -0.122273, 0.046141, 0.113581, , , 
1618796920.713912, , , , -0.080614, 0.131613, 0.009475, , , 
1618796920.81657, , , , -0.159243, 0.119275, -0.030141, , , 
1618796920.8969998, , , , -0.071360, 0.122082, 0.003518, , , 
1618796920.9774508, , , , 0.067965, 0.056917, -0.000596, , , 
1618796921.060354, , , , 0.127398, 0.233480, -0.007476, , , 
1618796921.11688, , , , 0.405322, 0.008571, -0.081680, , , 
1618796921.197396, , , , 0.220370, -0.100740, -0.080144, , , 
1618796921.246799, , , , 0.223436, -0.270879, -0.029499, , , 
1618796921.301594, , , , 0.313440, -0.136343, -0.042844, , , 
1618796921.350867, , , , 0.558682, -0.112249, -0.031618, , , 
1618796921.40623, , , , 0.255511, -0.031356, 0.002670, , , 
1618796921.4537702, , , , 0.147017, 0.029227, -0.012551, , , 
1618796921.511016, , , , 0.140917, -0.052192, -0.007329, , , 
1618796921.564693, , , , 0.151986, -0.021707, 0.017807, , , 
1618796921.648135, , , , 0.067022, 0.046720, -0.008234, , , 
1618796921.70509, , , , 0.123394, -0.021507, -0.007109, , , 
1618796921.7542791, , , , 0.003539, -0.080329, 0.013635, , , 
1618796921.8114471, , , , -0.005283, 0.033367, -0.072352, , , 
1618796921.86184, , , , -0.303565, -0.032380, -0.136594, , , 
1618796921.917567, , , , -0.171673, 0.015394, -0.053130, , , 
1618796922.018326, , , , -0.074435, -0.013019, -0.070629, , , 
1618796922.095216, , , , -0.014019, -0.126935, -0.009172, , , 
1618796922.1740332, , , , 0.064297, -0.083440, -0.049956, , , 
1618796922.2544641, , , , 0.034170, -0.086615, -0.041238, , , 
1618796922.3099399, , , , 0.026245, -0.139793, -0.046937, , , 
1618796922.357977, , , , 0.045612, -0.215682, -0.057433, , , 
1618796922.4137669, , , , -0.105554, -0.303468, -0.075989, , , 
1618796922.4618912, , , , -0.343905, -0.106489, -0.129054, , , 
1618796922.51804, , , , -0.187381, -0.172415, -0.099128, , , 
1618796922.619938, , , , -0.096126, -0.138905, -0.056895, , , 
1618796922.699542, , , , -0.149361, -0.182462, -0.053809, , , 
1618796922.753809, , , , -0.148774, -0.132647, -0.046092, , , 
1618796922.8027592, , , , -0.115352, -0.121963, -0.009369, , , 
1618796922.85871, , , , -0.141594, -0.111882, -0.024018, , , 
1618796922.9069781, , , , -0.120215, -0.165344, 0.035060, , , 
1618796922.961354, , , , -0.162420, -0.079953, 0.020457, , , 
1618796923.010453, , , , -0.126095, -0.030137, 0.058841, , , 
1618796923.065843, , , , -0.130694, 0.036099, 0.037567, , , 
1618796923.166545, , , , -0.105445, 0.008462, 0.039914, , , 
1618796923.245671, , , , -0.067248, 0.056485, 0.104412, , , 
1618796923.325541, , , , -0.065758, 0.095210, 0.086531, , , 
1618796923.407048, , , , -0.087290, 0.030821, 0.068773, , , 
1618796923.4853349, , , , 0.083639, -0.204888, 0.311161, , , 
1618796923.5419211, , , , 0.004687, 0.145374, 0.140116, , , 
1618796923.647201, , , , -0.082458, 0.087321, 0.115449, , , 
1618796923.730119, , , , -0.026748, 0.105533, 0.098042, , , 
1618796923.812433, , , , 0.098638, 0.146968, 0.100754, , , 
1618796923.867774, , , , 0.000215, 0.195576, 0.099188, , , 
1618796923.969661, , , , 0.086072, 0.208294, 0.071582, , , 
1618796924.050029, , , , 0.209259, 0.180366, 0.039517, , , 
1618796924.128483, , , , 0.139479, 0.115669, -0.024053, , , 
1618796924.2082648, , , , 0.123288, 0.051013, -0.033609, , , 
1618796924.287473, , , , -0.036359, 0.040183, -0.084227, , , 
1618796924.3663821, , , , 0.072672, 0.019901, -0.039818, , , 
1618796924.445323, , , , 0.100622, 0.058861, -0.010292, , , 
1618796924.5242848, , , , 0.097422, 0.116804, -0.016190, , , 
1618796924.605212, , , , 0.124099, 0.049736, -0.007788, , , 
1618796924.6618261, , , , 0.108896, 0.092647, -0.012007, , , 
1618796924.7124438, , , , 0.051862, 0.062258, -0.010706, , , 
1618796924.767074, , , , 0.117183, 0.001940, -0.038559, , , 
1618796924.846302, , , , 0.110816, -0.052744, -0.072579, , , 
1618796924.931593, , , , 0.158349, -0.014558, -0.086288, , , 
1618796925.010767, , , , 0.064270, 0.049400, -0.084531, , , 
1618796925.065772, , , , 0.018350, -0.165962, -0.107953, , , 
1618796925.169105, , , , -0.130865, -0.198245, -0.071154, , , 
1618796925.246923, , , , -0.224024, -0.101879, -0.096151, , , 
1618796925.324908, , , , -0.243160, 0.027013, -0.121969, , , 
1618796925.4073071, , , , -0.019866, -0.053812, -0.153340, , , 
1618796925.4622102, , , , -0.274913, -0.068776, -0.137200, , , 
1618796925.512697, , , , -0.038715, -0.245292, -0.068436, , , 
1618796925.567367, , , , -0.072609, -0.148111, -0.098262, , , 
1618796925.6467009, , , , -0.067534, -0.269679, -0.043861, , , 
1618796925.695967, , , , -0.090566, -0.131085, -0.070506, , , 
1618796925.774887, , , , 0.049913, -0.115550, -0.074826, , , 
1618796925.8569999, , , , 0.064649, -0.073391, -0.027143, , , 
1618796925.935186, , , , -0.121209, -0.062591, 0.004471, , , 
1618796926.015277, , , , 0.079581, -0.197431, -0.005167, , , 
1618796926.094967, , , , -0.008722, -0.213013, 0.033409, , , 
1618796926.17471, , , , -0.055172, -0.225963, 0.014617, , , 
1618796926.258164, , , , -0.007740, -0.241995, 0.012666, , , 
1618796926.31393, , , , -0.094972, -0.193646, 0.003930, , , 
1618796926.363706, , , , 0.074701, -0.087834, -0.031379, , , 
1618796926.443904, , , , 0.054117, -0.095054, -0.029303, , , 
1618796926.524996, , , , -0.046378, 0.050635, -0.004662, , , 
1618796926.6078138, , , , -0.113436, -0.010823, 0.081043, , , 
1618796926.662706, , , , 0.036246, 0.099673, 0.033188, , , 
1618796926.713196, , , , -0.110138, 0.140238, 0.044807, , , 
1618796926.7924318, , , , 0.009103, 0.157688, 0.060650, , , 
1618796926.872706, , , , -0.013415, 0.200463, 0.067015, , , 
1618796926.951664, , , , 0.096035, 0.203497, 0.070731, , , 
1618796927.007026, , , , 0.101133, 0.283866, 0.055188, , , 
1618796927.057324, , , , 0.085596, 0.240573, 0.034978, , , 
1618796927.113009, , , , 0.016293, 0.235856, 0.035911, , , 
1618796927.162857, , , , 0.064949, 0.241093, -0.002182, , , 
1618796927.24279, , , , 0.031833, 0.297523, -0.061828, , , 
1618796927.322334, , , , 0.144726, 0.028645, 0.026325, , , 
1618796927.402462, , , , 0.078477, 0.056184, 0.004521, , , 
1618796927.4573588, , , , 0.157873, 0.149168, -0.040665, , , 
1618796927.5077682, , , , 0.209635, 0.089648, -0.028222, , , 
1618796927.562634, , , , 0.207955, 0.077155, -0.009378, , , 
1618796927.613215, , , , 0.024856, 0.029241, 0.054387, , , 
1618796927.693754, , , , 0.164819, 0.095673, 0.048253, , , 
1618796927.772944, , , , 0.174480, 0.056024, 0.082434, , , 
1618796927.8561091, , , , 0.133572, 0.082652, 0.045341, , , 
1618796927.936317, , , , 0.067251, 0.133554, -0.014080, , , 
1618796928.016423, , , , -0.011166, -0.039112, -0.016964, , , 
1618796928.096695, , , , -0.017377, -0.060183, -0.051306, , , 
1618796928.1515322, , , , -0.007359, -0.081841, -0.075169, , , 
1618796928.202455, , , , 0.097059, -0.098256, -0.072888, , , 
1618796928.257163, , , , 0.119288, -0.148880, -0.066134, , , 
1618796928.3073401, , , , 0.093991, -0.129826, -0.089894, , , 
1618796928.362423, , , , 0.069278, -0.148779, -0.043901, , , 
1618796928.412898, , , , -0.182028, -0.250240, -0.023167, , , 
1618796928.4936938, , , , -0.002410, -0.144851, -0.067972, , , 
1618796928.574112, , , , 0.012677, -0.169206, -0.065976, , , 
1618796928.658414, , , , 0.002782, -0.453690, 0.023689, , , 
1618796928.7134771, , , , -0.049598, -0.242134, -0.112380, , , 
1618796928.763496, , , , -0.325477, -0.202979, -0.123288, , , 
1618796928.844038, , , , -0.116340, -0.062686, -0.139198, , , 
1618796928.9241881, , , , -0.026686, -0.159203, -0.071035, , , 
1618796929.00683, , , , -0.029183, -0.118352, -0.019062, , , 
1618796929.062069, , , , -0.153646, -0.023013, -0.047710, , , 
1618796929.1132689, , , , -0.055063, -0.075341, -0.010559, , , 
1618796929.193754, , , , -0.056226, 0.007332, -0.027297, , , 
1618796929.274853, , , , -0.193127, 0.006009, 0.030959, , , 
1618796929.359181, , , , -0.191978, 0.081622, 0.053567, , , 
1618796929.414757, , , , -0.137930, 0.145040, 0.043762, , , 
1618796929.5240211, , , , -0.174431, 0.152916, 0.082501, , , 
1618796929.604457, , , , 0.031326, 0.096724, 0.028115, , , 
1618796929.6861758, , , , -0.051918, 0.068560, -0.015640, , , 
1618796929.770261, , , , -0.130336, 0.013666, 0.073623, , , 
1618796929.8502722, , , , 0.032700, -0.069197, 0.086938, , , 
1618796929.9089398, , , , 0.002842, 0.043621, 0.061694, , , 
1618796929.960137, , , , 0.040055, 0.036814, 0.099948, , , 
1618796930.015374, , , , 0.043218, 0.059558, 0.105578, , , 
1618796930.097053, , , , 0.034288, 0.174208, 0.086151, , , 
1618796930.148421, , , , 0.226576, 0.044394, 0.104086, , , 
1618796930.2038422, , , , 0.122586, 0.159251, 0.078758, , , 
1618796930.254648, , , , 0.264732, 0.168529, 0.128646, , , 
1618796930.309128, , , , 0.170266, 0.214186, 0.143803, , , 
1618796930.3613029, , , , 0.258407, 0.095891, 0.144042, , , 
1618796930.416644, , , , 0.046398, 0.102026, 0.018826, , , 
1618796930.498406, , , , 0.191674, -0.180722, 0.039851, , , 
1618796930.551765, , , , 0.610453, 0.208902, -0.058309, , , 
1618796930.609077, , , , 0.346823, 0.129335, -0.033886, , , 
1618796930.66053, , , , 0.201496, 0.199653, -0.045445, , , 
1618796930.716511, , , , 0.312245, 0.121664, -0.016852, , , 
1618796930.826242, , , , 0.131214, 0.060369, -0.019574, , , 
1618796930.909968, , , , 0.089332, 0.029122, -0.048872, , , 
1618796930.9906769, , , , 0.079923, -0.030364, -0.029395, , , 
1618796931.074288, , , , -0.012340, -0.089720, -0.040939, , , 
1618796931.158375, , , , 0.043673, -0.214800, -0.037390, , , 
1618796931.213031, , , , -0.010460, -0.200651, -0.057598, , , 
1618796931.26425, , , , -0.015291, -0.173821, -0.074622, , , 
1618796931.3460689, , , , -0.012593, -0.193223, -0.101580, , , 
1618796931.42771, , , , -0.014616, -0.185439, -0.074242, , , 
1618796931.5101109, , , , 0.007449, -0.155650, -0.068900, , , 
1618796931.5652661, , , , 0.000465, -0.197443, -0.050841, , , 
1618796931.647512, , , , 0.048858, -0.255239, -0.065210, , , 
1618796931.700963, , , , 0.005227, -0.379313, -0.062573, , , 
1618796931.757194, , , , -0.101052, -0.335770, -0.050760, , , 
1618796931.808774, , , , -0.505013, -0.052679, -0.092598, , , 
1618796931.8641062, , , , -0.237690, 0.110372, -0.110866, , , 
1618796931.9178848, , , , 0.071078, -0.345663, 0.005952, , , 
1618796931.9989362, , , , -0.121987, -0.162263, 0.014476, , , 
1618796932.0543919, , , , 0.025849, -0.117641, -0.022000, , , 
1618796932.10646, , , , -0.143797, -0.052610, 0.023760, , , 
1618796932.161438, , , , -0.189480, 0.024428, 0.020825, , , 
1618796932.213021, , , , -0.159229, 0.005903, 0.045656, , , 
1618796932.295372, , , , -0.218743, 0.024799, 0.029758, , , 
1618796932.380871, , , , -0.177138, -0.074025, 0.054437, , , 
1618796932.466635, , , , -0.159549, 0.016419, 0.094570, , , 
1618796932.548619, , , , -0.155851, 0.274132, 0.054126, , , 
1618796932.603549, , , , -0.209128, 0.189458, 0.084091, , , 
1618796932.65571, , , , -0.173817, 0.179150, 0.068373, , , 
1618796932.710884, , , , -0.142655, 0.140885, 0.096157, , , 
1618796932.763706, , , , -0.179584, 0.135276, 0.160627, , , 
1618796932.8454452, , , , -0.073353, 0.110386, 0.114035, , , 
1618796932.927024, , , , -0.135344, 0.088684, 0.026589, , , 
1618796933.0103002, , , , -0.133875, 0.132159, 0.006527, , , 
1618796933.066169, , , , 0.005667, -0.001458, 0.041055, , , 
1618796933.1782699, , , , 0.148315, 0.071115, 0.020942, , , 
1618796933.263493, , , , 0.240834, 0.143468, 0.075037, , , 
1618796933.345625, , , , 0.131520, 0.088023, 0.082873, , , 
1618796933.42732, , , , 0.488671, 0.057356, 0.005083, , , 
1618796933.5097342, , , , 0.069056, 0.089961, 0.035527, , , 
1618796933.5652928, , , , 0.069808, -0.012422, -0.025093, , , 
1618796933.648072, , , , 0.202397, -0.058502, -0.036429, , , 
1618796933.703411, , , , 0.085069, -0.036406, -0.068087, , , 
1618796933.7583408, , , , 0.071178, -0.016430, -0.091521, , , 
1618796933.810505, , , , 0.083839, -0.043937, -0.122871, , , 
1618796933.866827, , , , 0.100505, -0.099691, -0.068046, , , 
1618796933.952641, , , , 0.107304, -0.209070, -0.055324, , , 
1618796934.006686, , , , 0.157228, -0.246854, -0.051834, , , 
1618796934.065125, , , , 0.162687, -0.233599, -0.028453, , , 
1618796934.158386, , , , 0.158917, -0.238561, 0.040755, , , 
1618796934.2115831, , , , 0.229582, -0.158374, -0.062000, , , 
1618796934.269804, , , , 0.230510, -0.214176, 0.001206, , , 
1618796934.384301, , , , 0.172478, -0.168464, -0.052867, , , 
1618796934.473318, , , , 0.185156, -0.262340, -0.054196, , , 
1618796934.565446, , , , 0.168596, -0.303867, -0.073061, , , 
1618796935.220777, , , , -0.176893, 0.109964, 0.049426, , , 
1618796935.712605, , , , -0.095025, 0.091252, 0.207202, , , 
1618796937.4946342, , , , 0.284461, -0.379046, -0.285523, , , 
1618796938.155905, , , , 0.130322, -0.156397, -0.024178, , , 
1618796938.758462, , , , -0.080759, -0.336701, -0.096845, , , 
1618796939.345422, , , , -0.004065, -0.060772, 0.051803, , , 
1618796939.957448, , , , 0.012484, -0.009276, -0.004973, , , 
1618796940.537303, , , , -0.034972, -0.241369, -0.072285, , , 
1618796944.7086558, , , , 0.146308, -0.575362, -0.266204, , , 
1618796944.818016, , , , -0.070613, 0.235005, 0.354573, , , 
1618796944.90168, , , , 0.089568, -0.017807, 0.149838, , , 
1618796944.986281, , , , -0.046720, 0.267019, -0.006943, , , 
1618796945.045954, , , , 0.004614, 0.211442, -0.013331, , , 
1618796945.147136, , , , 0.012921, 0.198150, 0.035511, , , 
1618796945.249913, , , , 0.079340, -0.221060, 0.049009, , , 
1618796945.313922, , , , 0.069540, -0.006936, 0.038301, , , 
1618796945.412866, , , , -0.024861, 0.021472, -0.023901, , , 
1618796945.469108, , , , 0.032766, -0.019789, -0.004233, , , 
1618796945.559085, , , , 0.056754, -0.045689, 0.030479, , , 
1618796945.618474, , , , 0.009848, -0.136427, 0.003364, , , 
1618796945.719681, , , , 0.010472, -0.058389, 0.004855, , , 
1618796945.847652, , , , -0.003394, -0.066087, 0.015858, , , 
1618796945.934053, , , , -0.053466, 0.014459, 0.003944, , , 
1618796946.019464, , , , 0.000968, 0.002888, -0.011636, , , 
1618796946.102078, , , , 0.013885, 0.021421, -0.009823, , , 
1618796946.18604, , , , 0.006618, -0.075103, 0.015778, , , 
1618796946.275218, , , , -0.032198, -0.039431, 0.019877, , , 
1618796946.365189, , , , -0.026552, -0.202773, 0.037699, , , 
1618796946.456393, , , , -0.058466, 0.022031, -0.013440, , , 
1618796946.513866, , , , -0.001135, -0.121894, -0.015682, , , 
1618796946.6052132, , , , -0.042505, -0.044308, -0.025268, , , 
1618796946.662885, , , , -0.051569, 0.001312, -0.013810, , , 
1618796946.7217278, , , , -0.031646, -0.120014, -0.008757, , , 
1618796946.842058, , , , -0.036865, 0.108627, -0.056612, , , 
1618796946.930225, , , , 0.021483, -0.078259, -0.030381, , , 
1618796947.0174909, , , , 0.012672, -0.106081, 0.007493, , , 
1618796947.104175, , , , -0.033812, -0.016748, -0.003972, , , 
1618796947.161032, , , , -0.015740, -0.058362, -0.012640, , , 
1618796947.21807, , , , -0.044056, -0.028227, -0.027918, , , 
1618796947.3049831, , , , 0.001439, 0.023231, -0.032184, , , 
1618796947.362617, , , , 0.017555, 0.000335, -0.016491, , , 
1618796947.421638, , , , 0.063045, -0.213932, -0.009002, , , 