SamplingTime, AccelerationX, AccelerationY, AccelerationZ, GyroX, GyroY, GyroZ, MagneticFieldX, MagneticFieldY, MagneticFieldZ
1618796979.925765, , , , 0.023018, -0.018747, -0.021197, , , 
1618796980.0193949, , , , -0.050381, -0.056355, -0.025471, , , 
1618796980.087966, , , , 0.030926, 0.059208, -0.070628, , , 
1618796980.125414, , , , 0.005793, -0.060981, -0.087391, , , 
1618796980.197303, , , , -0.046379, -0.285156, -0.187504, , , 
1618796980.275214, , , , 0.002596, -0.168959, -0.091676, , , 
1618796980.342881, , , , 0.100344, 0.025305, -0.049133, , , 
1618796980.374833, , , , 0.053259, 0.338153, -0.095464, , , 
1618796980.4435, , , , 0.204173, -0.101004, 0.047549, , , 
1618796980.4751182, , , , 0.089264, -0.231094, 0.074913, , , 
1618796980.534217, , , , 0.157426, -0.109802, 0.071133, , , 
1618796980.598607, , , , 0.245093, -0.282945, 0.014947, , , 
1618796980.675072, , , , 0.076601, -0.198015, 0.096327, , , 
1618796980.74316, , , , 0.029382, -0.086094, 0.058907, , , 
1618796980.825015, , , , 0.061933, -0.145848, -0.003747, , , 
1618796980.893713, , , , 0.212469, 0.033132, 0.055376, , , 
1618796980.9752321, , , , 0.089358, -0.013735, 0.008685, , , 
1618796981.0446758, , , , -0.127906, 0.043784, 0.055271, , , 
1618796981.125056, , , , -0.067377, 0.113303, 0.080536, , , 
1618796981.19317, , , , 0.191084, 0.081666, 0.094350, , , 
1618796981.2751, , , , 0.075040, 0.101216, 0.171868, , , 
1618796981.3438802, , , , 0.069856, 0.190654, 0.196276, , , 
1618796981.425112, , , , 0.012072, -0.117902, 0.062553, , , 
1618796981.5087628, , , , 0.051315, 0.083752, 0.076146, , , 
1618796981.579108, , , , -0.048037, 0.066690, 0.073208, , , 
1618796981.6496491, , , , 0.020144, 0.031284, 0.040887, , , 
1618796981.725281, , , , 0.056095, 0.007444, 0.048484, , , 
1618796981.793329, , , , 0.080902, -0.010277, 0.009991, , , 
1618796981.9363298, , , , -0.022159, -0.156564, -0.058217, , , 
1618796982.0083818, , , , -0.089002, -0.230131, -0.138333, , , 
1618796982.079914, , , , -0.038185, -0.213884, -0.129443, , , 
1618796982.1539102, , , , 0.089107, -0.170708, -0.088874, , , 
1618796982.2248259, , , , 0.028500, -0.211643, -0.124579, , , 
1618796982.294167, , , , 0.071348, -0.004883, -0.101441, , , 
1618796982.375005, , , , -0.000603, 0.009716, -0.107455, , , 
1618796982.4451861, , , , -0.067284, -0.107357, -0.089359, , , 
1618796982.524996, , , , -0.158897, 0.015786, -0.122543, , , 
1618796982.594774, , , , -0.123536, -0.030920, -0.076585, , , 
1618796982.6750278, , , , 0.065597, -0.052932, -0.024154, , , 
1618796982.7537909, , , , -0.067619, 0.006078, -0.048554, , , 
1618796982.8256168, , , , 0.055065, -0.062668, 0.033743, , , 
1618796982.909044, , , , 0.123120, 0.010417, 0.052955, , , 
1618796982.978576, , , , 0.162009, 0.061885, 0.047813, , , 
1618796983.045145, , , , 0.111607, -0.044848, 0.071013, , , 
1618796983.12497, , , , 0.116241, -0.039382, 0.007119, , , 
1618796983.194443, , , , 0.084891, 0.058098, -0.094062, , , 
1618796983.275733, , , , 0.307879, -0.211216, -0.019189, , , 
1618796983.3469648, , , , 0.110932, -0.153988, -0.118631, , , 
1618796983.425092, , , , -0.056273, 0.031866, -0.119886, , , 
1618796983.496128, , , , -0.021726, -0.050645, 0.002878, , , 
1618796983.575427, , , , 0.004765, -0.081499, 0.014134, , , 
1618796983.646301, , , , -0.063426, 0.022872, -0.014630, , , 
1618796983.724944, , , , -0.168002, 0.017096, 0.014298, , , 
1618796983.7949271, , , , -0.317318, 0.129527, 0.002421, , , 
1618796983.824709, , , , -0.293563, 0.156665, 0.016277, , , 
1618796983.885721, , , , -0.215637, 0.129462, 0.008689, , , 
1618796983.941782, , , , -0.224820, 0.101326, 0.010984, , , 
1618796983.974813, , , , -0.171052, 0.079452, 0.015465, , , 
1618796984.065096, , , , -0.061298, 0.071327, 0.002314, , , 
1618796984.13862, , , , -0.028693, 0.162633, -0.003257, , , 
1618796984.203496, , , , -0.058253, 0.100657, 0.004922, , , 
1618796984.2764769, , , , -0.068021, 0.013551, 0.037710, , , 
1618796984.3551412, , , , -0.105203, 0.073820, 0.066590, , , 
1618796984.4264, , , , -0.233619, 0.222846, 0.041364, , , 
1618796984.498301, , , , -0.166999, 0.081606, 0.092627, , , 
1618796984.5758119, , , , -0.091851, 0.133990, 0.078795, , , 
1618796984.667192, , , , -0.033511, 0.124848, 0.073104, , , 
1618796984.740625, , , , 0.111936, 0.122662, 0.115037, , , 
1618796984.775375, , , , 0.050512, 0.088270, 0.121850, , , 
1618796984.8446321, , , , -0.008994, 0.072664, 0.085089, , , 
1618796984.9258928, , , , 0.045082, 0.124983, 0.082895, , , 
1618796985.0004048, , , , 0.053349, -0.123105, 0.093179, , , 
1618796985.0757189, , , , 0.023183, 0.070163, 0.026727, , , 
1618796985.147502, , , , 0.032441, 0.040278, -0.017866, , , 
1618796985.225107, , , , -0.072344, 0.020049, -0.031471, , , 
1618796985.298347, , , , -0.029991, 0.012990, -0.037460, , , 
1618796985.375799, , , , 0.044232, 0.002881, -0.051577, , , 
1618796985.4712582, , , , 0.046769, -0.016812, -0.089033, , , 
1618796985.536453, , , , 0.060557, -0.229480, -0.116714, , , 
1618796985.598761, , , , 0.064056, -0.198845, -0.119455, , , 
1618796985.674998, , , , 0.125861, -0.215368, -0.130793, , , 
1618796985.73649, , , , 0.127094, -0.178152, -0.161515, , , 
1618796985.792523, , , , 0.069016, -0.154937, -0.120224, , , 
1618796985.825697, , , , 0.043265, -0.298441, -0.086057, , , 
1618796985.888688, , , , -0.111692, -0.217721, -0.043841, , , 
1618796985.9515228, , , , 0.054189, -0.132606, 0.018635, , , 
1618796986.051426, , , , 0.095586, -0.047908, 0.015047, , , 
1618796986.1303148, , , , 0.162481, -0.069010, 0.002106, , , 
1618796986.2055922, , , , 0.210135, -0.090600, 0.048520, , , 
1618796986.2831001, , , , 0.176546, 0.025074, 0.027059, , , 
1618796986.357637, , , , 0.217706, -0.146846, 0.020686, , , 
1618796986.431645, , , , 0.190601, 0.042386, -0.078498, , , 
1618796986.5054, , , , 0.343223, -0.157467, 0.011065, , , 
1618796986.5768518, , , , 0.218993, -0.158904, -0.061871, , , 
1618796986.652694, , , , 0.247269, -0.172767, -0.048927, , , 
1618796986.726943, , , , 0.293110, -0.186283, -0.090853, , , 
1618796986.79391, , , , 0.224755, -0.105048, -0.020228, , , 
1618796986.875751, , , , 0.143648, 0.085436, -0.110529, , , 
1618796986.9479818, , , , -0.015599, 0.001391, 0.005194, , , 
1618796987.024821, , , , -0.277984, 0.041358, 0.020479, , , 
1618796987.097533, , , , -0.523517, 0.314132, -0.036192, , , 
1618796987.175507, , , , -0.177182, 0.250636, -0.013722, , , 
1618796987.248436, , , , 0.162276, 0.011773, 0.101076, , , 
1618796987.3281112, , , , -0.335407, 0.283603, 0.038230, , , 
1618796987.401933, , , , -0.239937, 0.284484, 0.055268, , , 
1618796987.476412, , , , 0.017609, 0.195244, 0.043492, , , 
1618796987.5527081, , , , -0.105555, 0.167954, 0.054048, , , 
1618796987.6250591, , , , -0.056407, 0.174758, 0.030985, , , 
1618796987.6969872, , , , -0.074545, 0.002849, 0.050206, , , 
1618796987.7757359, , , , 0.025131, 0.046108, 0.055344, , , 
1618796987.849966, , , , -0.081540, -0.087518, 0.107854, , , 
1618796987.9301019, , , , 0.063731, -0.113963, 0.192424, , , 
1618796988.002238, , , , 0.034451, 0.081316, 0.025805, , , 
1618796988.076117, , , , -0.044500, 0.021665, 0.055228, , , 
1618796988.163714, , , , -0.051810, -0.036364, 0.056142, , , 
1618796988.232444, , , , 0.009664, -0.047444, -0.003260, , , 
1618796988.3120232, , , , 0.087202, -0.006522, -0.067617, , , 
1618796988.377232, , , , -0.081357, -0.099618, -0.148309, , , 
1618796988.448968, , , , -0.058308, -0.060509, -0.146931, , , 
1618796988.5250812, , , , -0.138660, 0.136604, -0.159604, , , 
1618796988.588118, , , , 0.044848, -0.014926, -0.202199, , , 
1618796988.653246, , , , 0.197007, -0.050331, -0.204866, , , 
1618796988.7277799, , , , 0.814482, -0.300303, -0.116497, , , 
1618796988.800354, , , , 0.026090, -0.218473, -0.173871, , , 
1618796988.876021, , , , 0.194092, -0.453423, -0.127264, , , 
1618796988.952354, , , , 0.009191, -0.202657, -0.217953, , , 
1618796989.026567, , , , -0.045196, -0.079527, -0.166160, , , 
1618796989.103259, , , , 0.138168, -0.061789, -0.118452, , , 
1618796989.1770148, , , , 0.078979, -0.083775, -0.062779, , , 
1618796989.253005, , , , 0.017011, 0.002758, -0.050558, , , 
1618796989.3543282, , , , -0.001182, 0.089340, 0.047965, , , 
1618796989.429724, , , , 0.109217, 0.055536, 0.033706, , , 
1618796989.517873, , , , -0.067159, 0.132019, 0.040657, , , 
1618796989.5907989, , , , -0.084075, 0.029469, 0.133658, , , 
1618796989.6595058, , , , -0.145760, 0.182066, 0.058616, , , 
1618796989.739692, , , , -0.107587, 0.056818, 0.049077, , , 
1618796989.813916, , , , -0.245711, 0.054461, 0.072937, , , 
1618796989.8913379, , , , -0.206992, 0.046847, 0.069380, , , 
1618796989.962028, , , , -0.267807, 0.050587, 0.061499, , , 
1618796990.025749, , , , -0.337212, 0.073558, 0.034914, , , 
1618796990.092891, , , , -0.283424, -0.048443, 0.072031, , , 
1618796990.176458, , , , -0.317187, 0.094094, 0.084218, , , 
1618796990.2470942, , , , -0.144118, -0.012750, 0.101060, , , 
1618796990.274936, , , , -0.147550, 0.013312, 0.053427, , , 
1618796990.344696, , , , -0.143816, -0.000226, 0.045666, , , 
1618796990.374798, , , , -0.166868, -0.060747, 0.047227, , , 
1618796990.4482322, , , , -0.117105, -0.084508, 0.005079, , , 
1618796990.525847, , , , -0.102937, -0.005604, 0.004259, , , 
1618796990.602512, , , , -0.236513, 0.056259, -0.001310, , , 
1618796990.677126, , , , -0.148500, 0.004492, 0.011223, , , 
1618796990.745147, , , , -0.047105, 0.106056, -0.033509, , , 
1618796990.7749062, , , , 0.013591, -0.130550, 0.064641, , , 
1618796990.849237, , , , -0.047468, 0.011539, 0.027171, , , 
1618796990.927706, , , , 0.014107, 0.045838, 0.047959, , , 
1618796991.004477, , , , 0.101888, 0.073182, 0.044994, , , 
1618796991.080758, , , , 0.149358, 0.141175, 0.018094, , , 
1618796991.1486468, , , , 0.057354, 0.081132, -0.006100, , , 
1618796991.225249, , , , 0.134963, 0.071127, -0.032531, , , 
1618796991.3005872, , , , 0.124444, 0.119730, -0.059714, , , 
1618796991.376837, , , , 0.130401, 0.011258, -0.075205, , , 
1618796991.454174, , , , 0.084262, -0.008959, -0.085922, , , 
1618796991.5318289, , , , 0.227590, -0.070224, -0.079356, , , 
1618796991.601547, , , , 0.042765, -0.142889, -0.134732, , , 
1618796991.6748052, , , , 0.264344, -0.138465, -0.133287, , , 
1618796991.75229, , , , 0.119931, -0.064729, -0.141228, , , 
1618796991.828048, , , , 0.155604, -0.057481, -0.087918, , , 
1618796991.9023042, , , , 0.074068, -0.018980, -0.127685, , , 
1618796991.978992, , , , 0.260016, -0.146714, -0.046230, , , 
1618796992.057128, , , , 0.052400, -0.078172, -0.031934, , , 
1618796992.133349, , , , 0.222988, -0.154849, 0.007990, , , 
1618796992.20647, , , , 0.238015, -0.241732, -0.019749, , , 
1618796992.282202, , , , 0.126106, -0.118729, -0.038256, , , 
1618796992.359225, , , , 0.155207, -0.147651, -0.030699, , , 
1618796992.4266229, , , , -0.110591, -0.162088, -0.042020, , , 
1618796992.4944282, , , , -0.183807, 0.070222, -0.091691, , , 
1618796992.524955, , , , -0.155809, -0.023495, -0.034494, , , 
1618796992.593453, , , , -0.297029, 0.003370, -0.014545, , , 
1618796992.6772661, , , , -0.320559, -0.087389, 0.026095, , , 
1618796992.7491, , , , -0.195977, -0.169689, 0.001854, , , 
1618796992.8251991, , , , -0.196621, -0.141872, -0.013827, , , 
1618796992.9018168, , , , 0.143790, -0.352549, 0.177522, , , 
1618796992.978829, , , , -0.216640, -0.099638, 0.060640, , , 
1618796993.056134, , , , -0.326185, 0.057837, -0.041713, , , 
1618796993.126326, , , , -0.073870, -0.024339, 0.125417, , , 
1618796993.195838, , , , -0.068343, 0.019607, 0.058828, , , 
1618796993.224831, , , , -0.047221, 0.028857, 0.076772, , , 
1618796993.290228, , , , -0.150461, 0.160134, 0.102632, , , 
1618796993.3571649, , , , -0.148118, 0.217277, 0.115644, , , 
1618796993.425034, , , , -0.033247, 0.207879, 0.104596, , , 
1618796993.492173, , , , -0.036156, 0.191968, 0.056485, , , 
1618796993.558707, , , , -0.059243, 0.144563, 0.028145, , , 
1618796993.624845, , , , 0.039931, 0.170984, 0.034134, , , 
1618796993.6915112, , , , 0.040286, 0.150150, 0.078979, , , 
1618796993.7576718, , , , 0.023803, 0.070267, 0.056017, , , 
1618796993.8248801, , , , -0.037979, 0.091733, 0.057375, , , 
1618796993.892221, , , , 0.260229, 0.079704, 0.113116, , , 
1618796993.957582, , , , -0.025521, 0.168301, 0.099224, , , 
1618796994.024808, , , , 0.118232, 0.052875, 0.101902, , , 
1618796994.0923061, , , , -0.051444, 0.043668, 0.062335, , , 
1618796994.158551, , , , 0.004401, 0.046524, 0.072594, , , 
1618796994.2258182, , , , 0.078058, 0.058476, 0.023261, , , 
1618796994.2944489, , , , 0.095434, 0.070303, -0.026652, , , 
1618796994.361845, , , , 0.005291, 0.063164, -0.037167, , , 
1618796994.428153, , , , 0.097756, 0.002027, -0.092071, , , 
1618796994.49487, , , , 0.185495, -0.079834, -0.073462, , , 
1618796994.524889, , , , 0.154946, -0.092714, -0.086606, , , 
1618796994.589504, , , , 0.049638, -0.115415, -0.088734, , , 
1618796994.657788, , , , 0.068489, -0.068220, -0.097242, , , 
1618796994.724903, , , , 0.133858, -0.146212, -0.058937, , , 
1618796994.791851, , , , 0.025522, -0.037901, -0.085934, , , 
1618796994.858941, , , , 0.119870, -0.118884, -0.080034, , , 
1618796994.925366, , , , 0.047506, -0.032638, -0.067277, , , 
1618796994.9918861, , , , 0.068372, -0.026637, -0.064228, , , 
1618796995.060889, , , , 0.059592, -0.041763, -0.053146, , , 
1618796995.132443, , , , 0.127902, -0.038111, -0.073352, , , 
1618796995.201151, , , , 0.018809, -0.083203, -0.069799, , , 
1618796995.275785, , , , -0.125288, 0.042474, -0.093948, , , 
1618796995.3438702, , , , -0.020235, -0.212395, -0.067251, , , 
1618796995.375095, , , , -0.030521, -0.136589, -0.117041, , , 
1618796995.442924, , , , 0.062462, -0.298199, -0.097885, , , 
1618796995.511522, , , , 0.080510, -0.287005, -0.127223, , , 
1618796995.581245, , , , -0.082346, -0.187447, -0.146626, , , 
1618796995.6499481, , , , 0.039201, -0.234401, -0.102540, , , 
1618796995.7248402, , , , -0.077688, -0.097641, -0.067238, , , 
1618796995.793432, , , , -0.156076, -0.079065, -0.033999, , , 
1618796995.8615031, , , , -0.147774, -0.101370, 0.008689, , , 
1618796995.93241, , , , -0.244930, -0.126762, 0.042786, , , 
1618796996.0015569, , , , -0.010839, -0.086324, 0.023726, , , 
1618796996.075835, , , , -0.107839, -0.016234, -0.017133, , , 
1618796996.144084, , , , -0.304910, 0.067398, -0.025547, , , 
1618796996.1750789, , , , -0.220916, 0.107596, -0.040404, , , 
1618796996.243891, , , , -0.146579, -0.009544, 0.031996, , , 
1618796996.31213, , , , -0.058028, 0.065910, -0.006389, , , 
1618796996.383669, , , , 0.085900, -0.023216, 0.075694, , , 
1618796996.454568, , , , 0.315744, 0.281622, 0.040689, , , 
1618796996.528617, , , , -0.059484, 0.262458, 0.049936, , , 
1618796996.600093, , , , -0.024491, 0.062802, 0.053297, , , 
1618796996.67584, , , , -0.006499, 0.033195, 0.076064, , , 
1618796996.750287, , , , -0.089958, 0.091139, 0.061249, , , 
1618796996.828326, , , , -0.078969, 0.062703, 0.088660, , , 
1618796996.9086199, , , , 0.079210, 0.020935, 0.067107, , , 
1618796996.988492, , , , 0.002777, 0.018407, 0.037679, , , 
1618796997.067282, , , , 0.084480, -0.169677, 0.053467, , , 
1618796997.1445, , , , 0.062763, -0.140012, 0.023585, , , 
1618796997.2149072, , , , 0.106380, -0.048175, -0.003658, , , 
1618796997.2847528, , , , 0.106868, 0.008331, -0.021887, , , 
1618796997.362915, , , , -0.003032, -0.000728, -0.028608, , , 
1618796997.44011, , , , -0.030319, -0.084227, -0.026192, , , 
1618796997.520782, , , , -0.035103, -0.219752, 0.047391, , , 
1618796997.6003098, , , , 0.035882, -0.034462, 0.032443, , , 
1618796997.6815329, , , , 0.097735, -0.081454, 0.036014, , , 
1618796997.754476, , , , 0.277969, -0.143146, 0.035209, , , 
1618796997.835115, , , , 0.016327, -0.083250, -0.012261, , , 
1618796997.915604, , , , 0.070371, -0.046565, -0.050365, , , 
1618796997.997025, , , , 0.109271, -0.154259, -0.098757, , , 
1618796998.077248, , , , 0.187176, -0.254277, -0.090470, , , 
1618796998.15853, , , , 0.079829, -0.274620, -0.058954, , , 
1618796998.235441, , , , 0.138723, -0.308118, -0.043677, , , 
1618796998.312619, , , , 0.142932, -0.106484, -0.151202, , , 
1618796998.382947, , , , 0.054387, -0.128095, -0.146711, , , 
1618796998.456627, , , , 0.132904, -0.167164, -0.060170, , , 
1618796998.532388, , , , 0.037023, -0.091831, -0.080377, , , 
1618796998.6027489, , , , -0.001782, -0.060382, -0.051871, , , 
1618796998.677356, , , , -0.230533, 0.057613, -0.034203, , , 
1618796998.747865, , , , -0.443106, 0.074294, -0.011998, , , 
1618796998.829907, , , , -0.299446, -0.168835, 0.048983, , , 
1618796998.910294, , , , -0.166273, -0.042720, 0.073192, , , 
1618796998.982675, , , , -0.160246, 0.065400, 0.072587, , , 
1618796999.0549479, , , , -0.332007, 0.077914, 0.083631, , , 
1618796999.127675, , , , -0.105217, 0.102388, 0.072365, , , 
1618796999.207865, , , , -0.138786, 0.192610, 0.049815, , , 
1618796999.2827358, , , , -0.131125, 0.204901, 0.055094, , , 
1618796999.3506122, , , , -0.097407, 0.213515, 0.049787, , , 
1618796999.424974, , , , -0.169611, 0.252402, 0.048530, , , 
1618796999.49405, , , , -0.025394, 0.370392, 0.082397, , , 
1618796999.562305, , , , -0.178251, 0.075117, 0.034413, , , 
1618796999.630381, , , , 0.173035, 0.024425, 0.064305, , , 
1618796999.7004352, , , , 0.130020, 0.079459, 0.071332, , , 
1618796999.775851, , , , 0.132058, 0.179418, 0.079027, , , 
1618796999.844507, , , , 0.177874, 0.112973, 0.084292, , , 
1618796999.874944, , , , 0.168880, 0.107634, 0.064652, , , 
1618796999.941715, , , , 0.107898, -0.016687, 0.072928, , , 
1618797000.016537, , , , 0.450836, -0.002510, 0.036370, , , 
1618797000.087354, , , , 0.153249, -0.034109, 0.012093, , , 
1618797000.158962, , , , 0.519149, 0.257275, -0.066942, , , 
1618797000.227552, , , , -0.105963, 0.009719, 0.002714, , , 
1618797000.296633, , , , 0.217896, 0.009016, -0.021395, , , 
1618797000.324986, , , , 0.119633, -0.029905, 0.006514, , , 
1618797000.393158, , , , 0.058984, -0.060294, -0.015671, , , 
1618797000.4613671, , , , 0.075458, -0.098847, -0.036324, , , 
1618797000.5319839, , , , 0.036791, -0.114811, -0.047015, , , 
1618797000.5999432, , , , 0.062128, -0.234806, -0.060955, , , 
1618797000.6758509, , , , 0.067773, -0.126919, -0.037188, , , 
1618797000.743904, , , , 0.000048, -0.179835, -0.013960, , , 
1618797000.812037, , , , -0.024920, -0.105116, -0.012890, , , 
1618797000.88045, , , , -0.049275, -0.131812, -0.049561, , , 
1618797000.949477, , , , 0.136222, -0.252073, -0.064760, , , 
1618797001.02533, , , , -0.043435, -0.256168, -0.064194, , , 
1618797001.094161, , , , 0.114084, -0.234645, -0.106994, , , 
1618797001.163024, , , , 0.137453, -0.227034, -0.103544, , , 
1618797001.233461, , , , -0.067097, -0.249129, -0.137687, , , 
1618797001.3023229, , , , -0.181289, -0.271448, -0.085920, , , 
1618797001.375077, , , , 0.067553, -0.109042, -0.117255, , , 
1618797001.444493, , , , -0.077499, -0.155950, -0.071797, , , 
1618797001.514303, , , , -0.132051, -0.042722, -0.046699, , , 
1618797001.585536, , , , -0.078763, -0.018955, -0.041114, , , 
1618797001.654458, , , , -0.139039, -0.074165, -0.020118, , , 
1618797001.7249951, , , , -0.047754, 0.052191, 0.000372, , , 
1618797001.794419, , , , -0.183149, 0.069740, 0.007442, , , 
1618797001.863195, , , , -0.206932, 0.112374, 0.024842, , , 
1618797001.934186, , , , -0.189315, 0.100853, 0.042232, , , 
1618797002.003323, , , , -0.269715, 0.094589, 0.081378, , , 
1618797002.075858, , , , -0.077781, -0.015967, 0.105800, , , 
1618797002.145409, , , , 0.270487, 0.189525, 0.111928, , , 
1618797002.175107, , , , 0.031920, 0.179031, 0.218405, , , 
1618797002.2424622, , , , -0.169676, 0.265736, 0.148021, , , 
1618797002.3106198, , , , -0.091271, 0.257818, 0.216778, , , 
1618797002.3822598, , , , -0.019055, 0.191608, 0.118575, , , 
1618797002.455254, , , , -0.012037, 0.286412, 0.086244, , , 
1618797002.527612, , , , 0.061279, 0.182134, 0.134002, , , 
1618797002.5986829, , , , 0.180887, 0.212661, 0.114871, , , 
1618797002.677596, , , , 0.191340, 0.204255, 0.146169, , , 
1618797002.7493029, , , , -0.094312, 0.044058, 0.158276, , , 
1618797002.831866, , , , -0.010126, 0.107223, 0.070185, , , 
1618797002.914415, , , , 0.268340, 0.043189, 0.049241, , , 
1618797002.997669, , , , 0.069155, 0.096427, 0.018284, , , 
1618797003.081133, , , , 0.452448, 0.027890, -0.002282, , , 
1618797003.1647391, , , , 0.619397, 0.045982, 0.035054, , , 
1618797003.24687, , , , 0.266968, 0.058845, -0.005073, , , 
1618797003.329122, , , , 0.158261, 0.007242, -0.033795, , , 
1618797003.4091148, , , , 0.177290, -0.088599, -0.058540, , , 
1618797003.4919372, , , , 0.088436, -0.272121, -0.092058, , , 
1618797003.574973, , , , -0.058233, -0.352229, -0.112033, , , 
1618797003.656079, , , , 0.107429, -0.237420, -0.109860, , , 
1618797003.7392101, , , , 0.025394, -0.265215, -0.130646, , , 
1618797003.813396, , , , 0.013350, -0.220771, -0.150034, , , 
1618797003.8956962, , , , 0.057505, -0.267234, -0.145179, , , 
1618797003.975323, , , , -0.174065, -0.377707, -0.133124, , , 
1618797004.047265, , , , -0.321407, -0.098571, -0.167953, , , 
1618797004.131431, , , , -0.112362, -0.175814, -0.090451, , , 
1618797004.2158198, , , , -0.152584, -0.110369, -0.054377, , , 
1618797004.2988381, , , , -0.139775, -0.215308, -0.044515, , , 
1618797004.383007, , , , -0.164312, -0.007002, -0.056088, , , 
1618797004.464318, , , , -0.146024, 0.001517, -0.049545, , , 
1618797004.54919, , , , -0.168592, -0.035277, -0.045026, , , 
1618797004.6322, , , , -0.033886, -0.093177, -0.026956, , , 
1618797004.7152781, , , , -0.093529, -0.066163, 0.009091, , , 
1618797004.788867, , , , -0.208684, 0.054821, 0.009238, , , 
1618797004.862395, , , , -0.277305, 0.016842, 0.088750, , , 
1618797004.943672, , , , -0.216914, 0.184661, 0.075726, , , 
1618797005.0184321, , , , -0.181075, 0.107937, 0.105788, , , 
1618797005.095864, , , , 0.124698, 0.106614, 0.066759, , , 
1618797005.180588, , , , 0.019409, 0.109045, 0.059957, , , 
1618797005.253727, , , , 0.284708, 0.045009, 0.055122, , , 
1618797005.327036, , , , 0.300273, -0.029461, -0.041045, , , 
1618797005.411185, , , , 0.248603, -0.045974, -0.119111, , , 
1618797005.493466, , , , 0.296303, -0.190497, -0.175763, , , 
1618797005.56671, , , , 0.685046, -0.289690, -0.056436, , , 
1618797005.6423302, , , , -0.068988, 0.016877, -0.027974, , , 
1618797005.725426, , , , -0.003316, -0.072211, -0.001162, , , 
1618797005.809392, , , , -0.101134, -0.142537, 0.064657, , , 
1618797005.898016, , , , 0.286409, -0.161730, 0.131629, , , 
1618797005.980884, , , , -0.092593, 0.089285, 0.074301, , , 
1618797006.057502, , , , 0.008013, 0.063125, 0.143441, , , 
1618797006.142103, , , , -0.075985, 0.198165, 0.071944, , , 
1618797006.219304, , , , 0.070052, 0.016660, 0.018442, , , 
1618797006.304193, , , , 0.005054, 0.157831, -0.001422, , , 
1618797006.388385, , , , 0.061956, 0.261010, 0.008610, , , 
1618797006.472296, , , , -0.003214, 0.366686, -0.033963, , , 
1618797006.545809, , , , 0.176008, 0.218055, 0.021408, , , 
1618797006.6176682, , , , -0.030360, 0.307985, 0.013463, , , 
1618797006.693832, , , , 0.029594, 0.210257, 0.015995, , , 
1618797006.778105, , , , 0.070231, 0.132837, 0.007274, , , 
1618797006.865275, , , , -0.061928, 0.112277, 0.029395, , , 
1618797006.951003, , , , -0.320544, 0.023371, 0.054425, , , 
1618797007.028466, , , , -0.525322, 0.076977, 0.036298, , , 
1618797007.1118631, , , , -0.016858, -0.097012, 0.038596, , , 
1618797007.1967602, , , , -0.347678, 0.020738, -0.006447, , , 
1618797007.275553, , , , -0.089494, -0.178756, -0.016017, , , 
1618797007.3568568, , , , -0.138772, -0.145146, -0.001632, , , 
1618797007.433072, , , , 0.057293, -0.153330, 0.020863, , , 
1618797007.516564, , , , 0.004402, 0.012393, 0.008289, , , 
1618797007.599071, , , , -0.090292, -0.143805, 0.036798, , , 
1618797007.681069, , , , -0.174761, -0.235020, -0.045220, , , 
1618797007.765727, , , , -0.249138, -0.091779, -0.064952, , , 
1618797007.850082, , , , -0.228412, -0.087613, -0.097748, , , 
1618797007.929383, , , , -0.102355, -0.171660, -0.089204, , , 
1618797008.015225, , , , 0.028888, -0.002983, -0.100807, , , 
1618797008.099895, , , , -0.171364, 0.053971, -0.080125, , , 
1618797008.175136, , , , -0.009978, -0.027076, -0.078151, , , 
1618797008.248582, , , , 0.114635, -0.104595, -0.000097, , , 
1618797008.3294768, , , , 0.098982, 0.051002, -0.063827, , , 
1618797008.408973, , , , 0.097869, -0.112200, -0.107777, , , 
1618797008.492842, , , , 0.068269, -0.083725, -0.147041, , , 
1618797008.567426, , , , 0.234591, -0.134436, -0.169533, , , 
1618797008.641685, , , , 0.285065, -0.135094, -0.157412, , , 
1618797008.715533, , , , 0.380162, -0.321436, -0.133374, , , 
1618797008.790652, , , , -0.185483, -0.141806, -0.126825, , , 
1618797008.864306, , , , 0.174199, -0.265303, -0.009731, , , 
1618797008.939565, , , , -0.076488, -0.106468, 0.002095, , , 
1618797009.013085, , , , 0.152903, -0.194417, 0.039517, , , 
1618797009.089144, , , , 0.143912, -0.007097, -0.044845, , , 
1618797009.166082, , , , 0.134734, -0.132956, 0.025104, , , 
1618797009.243967, , , , 0.194535, -0.124173, 0.026199, , , 
1618797009.315341, , , , 0.310788, -0.160930, 0.017611, , , 
1618797009.388763, , , , 0.238154, -0.101657, 0.025376, , , 
1618797009.4607239, , , , 0.329820, 0.041666, -0.014583, , , 
1618797009.5342212, , , , 0.073055, 0.137528, 0.028208, , , 
1618797009.6082711, , , , 0.071738, 0.075253, 0.055625, , , 
1618797009.680633, , , , 0.022088, 0.129196, 0.057670, , , 
1618797009.752627, , , , 0.044575, 0.155048, 0.071191, , , 
1618797009.8269181, , , , 0.074153, 0.208518, 0.064292, , , 
1618797009.899585, , , , -0.014444, 0.211377, 0.031973, , , 
1618797009.977979, , , , -0.001295, 0.050218, 0.042070, , , 
1618797010.049932, , , , -0.150274, 0.081242, 0.022883, , , 
1618797010.1293411, , , , -0.380341, 0.055602, -0.045185, , , 
1618797010.202715, , , , -0.183895, 0.072469, -0.031073, , , 
1618797010.277853, , , , -0.150663, 0.058757, -0.063622, , , 
1618797010.3512058, , , , -0.174180, 0.049533, -0.115741, , , 
1618797010.427264, , , , -0.248824, -0.049210, -0.074102, , , 
1618797010.499782, , , , -0.172732, -0.037839, -0.090888, , , 
1618797010.5826101, , , , -0.169887, -0.123314, -0.081279, , , 
1618797010.6655421, , , , -0.100361, -0.057341, -0.022506, , , 
1618797010.7385, , , , -0.165343, 0.002558, -0.019207, , , 
1618797010.812134, , , , -0.184730, -0.135373, 0.020911, , , 
1618797010.8849568, , , , -0.086323, -0.032066, 0.061132, , , 
1618797010.957396, , , , -0.095426, 0.023465, 0.069066, , , 
1618797011.030885, , , , -0.235583, -0.083097, 0.069400, , , 
1618797011.103623, , , , -0.037822, -0.080784, 0.033368, , , 
1618797011.177681, , , , -0.180793, -0.093787, -0.051846, , , 
1618797011.2507272, , , , 0.126838, -0.163468, -0.038760, , , 
1618797011.33033, , , , -0.003555, -0.170030, -0.101024, , , 
1618797011.405287, , , , -0.003501, -0.119851, -0.130954, , , 
1618797011.4784741, , , , 0.186929, -0.312474, -0.100988, , , 
1618797011.551477, , , , 0.395074, -0.240671, -0.089275, , , 
1618797011.629246, , , , 0.112286, -0.106812, -0.080756, , , 
1618797011.701648, , , , 0.074743, -0.035641, -0.075109, , , 
1618797011.777745, , , , -0.064915, 0.191780, -0.085399, , , 
1618797011.850425, , , , -0.030941, 0.075733, -0.029745, , , 
1618797011.9339728, , , , 0.058010, 0.115804, -0.005611, , , 
1618797012.019775, , , , 0.058807, 0.040375, 0.010003, , , 
1618797012.103736, , , , 0.040667, -0.019471, 0.021126, , , 
1618797012.189824, , , , 0.055244, -0.059907, 0.033958, , , 
1618797012.27021, , , , 0.061111, -0.042596, 0.056537, , , 
1618797012.350727, , , , 0.064094, 0.215268, 0.001677, , , 
1618797012.4329128, , , , -0.002974, -0.003030, 0.064976, , , 
1618797012.518368, , , , 0.184074, 0.124946, 0.059371, , , 
1618797012.594627, , , , -0.186074, 0.211144, 0.069277, , , 
1618797012.669743, , , , 0.123514, 0.024418, 0.090921, , , 
1618797012.746212, , , , 0.133679, 0.111789, 0.107393, , , 
1618797012.825068, , , , 0.238559, 0.195480, 0.151429, , , 
1618797012.900669, , , , -0.005681, 0.078741, 0.206487, , , 
1618797012.9794168, , , , 0.008999, 0.040560, 0.103515, , , 
1618797013.055605, , , , 0.035820, -0.011800, 0.044754, , , 
1618797013.132087, , , , 0.283499, -0.127172, 0.036778, , , 
1618797013.208013, , , , 0.108066, 0.027310, -0.016203, , , 
1618797013.285715, , , , 0.138765, -0.036039, 0.035676, , , 
1618797013.367577, , , , 0.083067, -0.033574, 0.030206, , , 
1618797013.445363, , , , 0.026799, 0.012130, -0.006688, , , 
1618797013.52067, , , , -0.008215, -0.019209, -0.034012, , , 
1618797013.5984159, , , , 0.000479, -0.053474, -0.030018, , , 
1618797013.675185, , , , -0.067414, -0.007643, -0.035650, , , 
1618797013.751618, , , , -0.195092, -0.037193, -0.019263, , , 
1618797013.83776, , , , -0.234973, -0.014054, -0.025303, , , 
1618797013.923812, , , , -0.226415, -0.172512, -0.043528, , , 
1618797014.011756, , , , -0.266138, -0.125190, -0.054125, , , 
1618797014.098434, , , , -0.111568, -0.228685, -0.025539, , , 
1618797014.1753001, , , , -0.126373, -0.129441, -0.059998, , , 
1618797014.2521172, , , , -0.149366, -0.132899, -0.082046, , , 
1618797014.338828, , , , -0.151447, -0.117156, -0.069569, , , 
1618797014.4264479, , , , -0.074730, -0.141371, -0.112889, , , 
1618797014.514796, , , , 0.101815, -0.179519, -0.136752, , , 
1618797014.6054869, , , , -0.074941, -0.064642, -0.099968, , , 
1618797014.689085, , , , -0.041368, -0.190917, -0.072141, , , 
1618797014.773215, , , , 0.002012, -0.106429, -0.044028, , , 
1618797014.8601599, , , , 0.009147, 0.004497, -0.072029, , , 
1618797014.950779, , , , 0.224654, -0.037334, -0.058142, , , 
1618797015.0371308, , , , 0.139447, 0.066060, -0.077609, , , 
1618797015.125885, , , , 0.220831, -0.015248, -0.109757, , , 
1618797015.214077, , , , 0.166109, -0.014996, -0.114264, , , 
1618797015.2918758, , , , 0.195193, -0.133252, -0.028033, , , 
1618797015.367466, , , , 0.183768, -0.010524, -0.007055, , , 
1618797015.444581, , , , 0.177130, -0.019052, 0.003291, , , 
1618797015.5209, , , , 0.104848, -0.019727, 0.009667, , , 
1618797015.5981421, , , , 0.063466, 0.075951, 0.040002, , , 
1618797015.675127, , , , -0.028612, 0.193457, 0.111289, , , 
1618797015.754317, , , , 0.079069, 0.183024, 0.119702, , , 
1618797015.831821, , , , 0.115093, 0.174714, -0.046855, , , 
1618797015.909463, , , , 0.083554, 0.116266, 0.048528, , , 
1618797015.9865, , , , 0.223966, 0.109786, 0.084041, , , 
1618797016.069916, , , , -0.003650, 0.146383, 0.039282, , , 
1618797016.1560879, , , , 0.081341, 0.188742, 0.039838, , , 
1618797016.2418509, , , , 0.054858, 0.178645, 0.050058, , , 
1618797016.322612, , , , -0.072957, 0.179907, 0.058319, , , 
1618797016.397663, , , , -0.122644, 0.030515, 0.073898, , , 
1618797016.475205, , , , -0.050745, 0.042070, 0.034415, , , 
1618797016.550112, , , , -0.054122, 0.035043, 0.020186, , , 
1618797016.625634, , , , -0.025340, 0.013776, 0.014607, , , 
1618797016.699767, , , , -0.057743, -0.069889, 0.040804, , , 
1618797016.776763, , , , -0.275856, -0.015181, 0.014711, , , 
1618797016.852051, , , , -0.167966, -0.067764, 0.026277, , , 
1618797016.929956, , , , -0.105732, -0.050650, 0.002311, , , 
1618797017.0051851, , , , -0.188591, -0.072811, -0.019891, , , 
1618797017.0803661, , , , -0.276162, -0.151003, -0.002710, , , 
1618797017.155355, , , , -0.073758, -0.193164, -0.057439, , , 
1618797017.231544, , , , -0.148686, -0.039800, -0.060410, , , 
1618797017.30438, , , , -0.083237, -0.020059, -0.037560, , , 
1618797017.385349, , , , -0.119521, -0.160548, -0.006259, , , 
1618797017.4641309, , , , -0.109870, -0.131696, -0.041180, , , 
1618797017.542984, , , , -0.120819, -0.149754, -0.033364, , , 
1618797017.620264, , , , 0.006130, -0.156476, -0.070461, , , 
1618797017.678812, , , , -0.210458, -0.010199, -0.088976, , , 
1618797017.772781, , , , -0.062186, -0.202278, -0.125037, , , 
1618797017.8486152, , , , 0.136111, -0.296636, -0.132268, , , 
1618797017.925552, , , , 0.005053, -0.206574, -0.121582, , , 
1618797018.001264, , , , -0.002422, -0.264891, -0.089236, , , 
1618797018.075056, , , , 0.185268, -0.288458, -0.086085, , , 
1618797018.1476068, , , , 0.081104, -0.231459, -0.064772, , , 
1618797018.2193651, , , , 0.143917, -0.296532, -0.025929, , , 
1618797018.292117, , , , 0.451358, -0.052016, -0.001400, , , 
1618797018.364542, , , , -0.056074, 0.063431, 0.001401, , , 
1618797018.436681, , , , 0.047498, 0.054632, 0.039505, , , 
1618797018.509645, , , , -0.107469, 0.188997, 0.065286, , , 
1618797018.5823731, , , , -0.023678, 0.210576, 0.058630, , , 
1618797018.654718, , , , 0.355143, 0.021254, 0.183956, , , 
1618797018.728426, , , , 0.049968, 0.395566, 0.120596, , , 
1618797018.801238, , , , 0.467463, 0.073126, 0.168345, , , 
1618797018.879105, , , , 0.212790, 0.308499, 0.060385, , , 
1618797018.951585, , , , 0.213270, 0.355465, 0.046242, , , 
1618797019.028747, , , , 0.154120, 0.161046, 0.066381, , , 
1618797019.101674, , , , -0.145484, 0.272844, 0.082133, , , 
1618797019.179461, , , , 0.004884, 0.196538, 0.054227, , , 
1618797019.252388, , , , -0.072178, 0.085186, 0.083971, , , 
1618797019.328549, , , , 0.044198, 0.057716, 0.073492, , , 
1618797019.400958, , , , 0.029692, 0.074198, 0.082429, , , 
1618797019.479038, , , , 0.085614, 0.060364, 0.034340, , , 
1618797019.551447, , , , -0.029941, 0.015274, 0.027222, , , 
1618797019.633531, , , , 0.029856, 0.012603, 0.009433, , , 
1618797019.711784, , , , -0.065713, -0.095642, -0.013079, , , 
1618797019.788652, , , , -0.275256, -0.084820, -0.052679, , , 
1618797019.866216, , , , -0.148450, -0.090937, -0.097001, , , 
1618797019.944364, , , , -0.138822, -0.210322, -0.088582, , , 
1618797020.018855, , , , -0.185201, -0.108167, -0.108601, , , 
1618797020.096085, , , , -0.080473, -0.271325, -0.105576, , , 
1618797020.172021, , , , -0.081797, -0.207184, -0.090051, , , 
1618797020.248029, , , , -0.211405, -0.278969, -0.109692, , , 
1618797020.3276381, , , , -0.097380, -0.252513, -0.129125, , , 
1618797020.409239, , , , -0.095286, -0.175957, -0.123584, , , 
1618797020.488093, , , , -0.270904, -0.128261, -0.167829, , , 
1618797020.5663881, , , , -0.050304, -0.210642, -0.132899, , , 
1618797020.644143, , , , -0.000373, -0.022826, -0.222916, , , 
1618797020.722368, , , , 0.218048, -0.247344, -0.213368, , , 
1618797020.801745, , , , 0.123204, -0.086062, -0.272780, , , 
1618797020.891708, , , , 0.152531, -0.076821, -0.124418, , , 
1618797020.9761019, , , , 0.130617, -0.023896, -0.035332, , , 
1618797021.061018, , , , 0.002160, -0.036440, 0.033117, , , 
1618797021.140942, , , , -0.108025, 0.014603, 0.071163, , , 
1618797021.221044, , , , -0.230976, 0.015549, 0.148264, , , 
1618797021.300169, , , , -0.321648, 0.253410, 0.085770, , , 
1618797021.378746, , , , -0.085168, 0.179099, 0.084363, , , 
1618797021.458245, , , , 0.100263, 0.223679, 0.047830, , , 
1618797021.538399, , , , 0.091430, 0.152214, 0.036561, , , 
1618797021.616519, , , , 0.067863, 0.079528, 0.036928, , , 
1618797021.6959028, , , , 0.172075, -0.109946, -0.032073, , , 
1618797021.774767, , , , 0.196871, -0.093401, -0.141779, , , 
1618797021.8540568, , , , 0.090420, -0.125848, -0.152207, , , 
1618797021.9330258, , , , 0.043958, -0.237001, -0.107912, , , 
1618797022.003388, , , , 0.046061, -0.130493, -0.084342, , , 
1618797022.109905, , , , -0.246623, -0.100047, -0.014540, , , 
1618797022.195082, , , , -0.044224, -0.251174, -0.008303, , , 
1618797022.289166, , , , 0.090564, -0.174649, -0.009242, , , 
1618797022.382773, , , , 0.141470, -0.015174, -0.009567, , , 
1618797022.469682, , , , 0.076508, 0.264295, -0.003252, , , 
1618797022.55052, , , , 0.201989, 0.084633, 0.060236, , , 
1618797022.630746, , , , -0.015330, 0.247708, 0.072229, , , 
1618797022.713726, , , , 0.075855, 0.200437, 0.080770, , , 
1618797022.7949939, , , , 0.139103, 0.131323, 0.077430, , , 
1618797022.877469, , , , -0.001662, 0.271114, 0.082782, , , 
1618797022.963458, , , , 0.034307, 0.260668, 0.087645, , , 
1618797023.046577, , , , -0.087755, 0.144158, 0.116784, , , 
1618797023.129617, , , , -0.229742, 0.163275, 0.079680, , , 
1618797023.2118511, , , , -0.240439, 0.108675, 0.079962, , , 
1618797023.2929, , , , -0.200948, 0.055654, 0.067018, , , 
1618797023.3742151, , , , -0.216859, 0.087285, -0.006085, , , 
1618797023.45962, , , , -0.243282, -0.040726, -0.004461, , , 
1618797023.550874, , , , -0.124460, -0.067970, -0.019046, , , 
1618797023.643012, , , , -0.077741, -0.020278, -0.004015, , , 
1618797023.7330852, , , , -0.020993, 0.110568, -0.062677, , , 
1618797023.816104, , , , -0.206531, 0.045008, -0.007848, , , 
1618797023.9072042, , , , -0.098232, 0.078101, 0.066894, , , 
1618797023.996443, , , , -0.044031, 0.078556, 0.022596, , , 
1618797024.0769749, , , , -0.192023, 0.062384, -0.056504, , , 
1618797024.158252, , , , -0.006423, -0.015682, -0.030811, , , 
1618797024.238338, , , , -0.052418, -0.011971, -0.033605, , , 
1618797024.318316, , , , 0.035810, 0.080074, -0.075853, , , 
1618797024.3981419, , , , 0.193156, -0.078255, -0.064695, , , 
1618797024.4781132, , , , 0.305405, -0.165219, 0.002691, , , 
1618797024.5589972, , , , -0.049012, -0.048872, -0.031803, , , 
1618797024.638716, , , , 0.217450, -0.139603, -0.097200, , , 
1618797024.719592, , , , 0.515427, -0.180538, -0.054774, , , 
1618797024.79953, , , , 0.293412, -0.192732, -0.095693, , , 
1618797024.8801842, , , , 0.301494, -0.290769, -0.119379, , , 
1618797024.961673, , , , 0.284766, -0.135291, -0.156118, , , 
1618797025.043957, , , , 0.082288, -0.116147, -0.101953, , , 
1618797025.130657, , , , -0.040242, -0.127264, -0.049873, , , 
1618797025.224042, , , , -0.015441, -0.019405, -0.037499, , , 
1618797025.3170319, , , , -0.063658, -0.009373, -0.011631, , , 
1618797025.406599, , , , -0.075722, -0.038989, -0.001597, , , 
1618797025.4979172, , , , -0.323711, -0.102547, 0.009767, , , 
1618797025.591216, , , , -0.170499, -0.038631, 0.025889, , , 
1618797025.6822438, , , , -0.313503, 0.062463, 0.026079, , , 
1618797025.762535, , , , -0.223937, 0.031765, 0.030407, , , 
1618797025.8401442, , , , -0.181164, -0.046643, 0.054675, , , 
1618797025.9192228, , , , -0.154398, 0.084202, 0.047132, , , 
1618797025.998726, , , , -0.188440, 0.100796, 0.061399, , , 
1618797026.078525, , , , -0.086357, 0.048057, 0.120754, , , 
1618797026.159871, , , , 0.284117, 0.232377, 0.109752, , , 
1618797026.240607, , , , 0.097397, 0.060209, 0.213520, , , 
1618797026.320574, , , , -0.075811, 0.100560, 0.153445, , , 
1618797026.4012852, , , , -0.040787, 0.063498, 0.136685, , , 
1618797026.481341, , , , 0.028895, 0.039809, 0.109672, , , 
1618797026.559531, , , , -0.116779, 0.001146, 0.043407, , , 
1618797026.638355, , , , -0.096568, 0.038568, -0.013647, , , 
1618797026.7164412, , , , -0.061648, 0.117253, -0.045693, , , 
1618797026.796324, , , , -0.160179, 0.005077, -0.030110, , , 
1618797026.8750172, , , , 0.043870, 0.010117, -0.036320, , , 
1618797026.955052, , , , 0.067363, 0.011327, -0.024435, , , 
1618797027.0333009, , , , 0.106446, -0.004277, -0.035631, , , 
1618797027.111659, , , , 0.072900, -0.003724, -0.089478, , , 
1618797027.187932, , , , 0.125782, 0.059501, -0.100162, , , 
1618797027.263341, , , , 0.057506, -0.126985, -0.077267, , , 
1618797027.341792, , , , 0.148596, -0.090207, -0.105389, , , 
1618797027.41727, , , , 0.615611, -0.242813, -0.157586, , , 
1618797027.493521, , , , 0.216648, -0.194725, -0.181064, , , 
1618797027.570539, , , , 0.374424, -0.207458, -0.069923, , , 
1618797027.646402, , , , 0.303048, -0.164434, -0.057026, , , 
1618797027.722032, , , , 0.220811, -0.098217, -0.023119, , , 
1618797027.7983851, , , , 0.042208, -0.098397, 0.007861, , , 
1618797027.874992, , , , -0.083113, -0.039539, 0.041360, , , 
1618797027.951961, , , , -0.109689, -0.082098, 0.019214, , , 
1618797028.028131, , , , -0.285492, -0.040301, 0.001790, , , 
1618797028.1051369, , , , -0.048354, -0.079148, 0.004887, , , 
1618797028.182302, , , , -0.011202, -0.076301, -0.010159, , , 
1618797028.259114, , , , -0.006906, -0.049503, -0.020357, , , 
1618797028.3359609, , , , -0.013725, -0.023609, -0.019045, , , 
1618797028.413491, , , , -0.060397, -0.027604, 0.000772, , , 
1618797028.492218, , , , -0.094421, 0.004067, -0.063641, , , 
1618797028.567474, , , , 0.036272, -0.195426, -0.015349, , , 
1618797028.643485, , , , 0.080701, 0.159692, 0.009348, , , 
1618797028.719661, , , , -0.082877, 0.088989, -0.011915, , , 
1618797028.797377, , , , -0.051089, 0.165166, 0.055145, , , 
1618797028.873969, , , , -0.046685, 0.172926, 0.084870, , , 
1618797028.952451, , , , -0.180648, 0.179770, 0.086505, , , 
1618797029.029614, , , , -0.194112, 0.048500, 0.129081, , , 
1618797029.105936, , , , 0.004304, 0.039433, 0.112072, , , 
1618797029.1831632, , , , -0.244004, 0.079100, 0.068183, , , 
1618797029.259431, , , , -0.166446, -0.023905, 0.094215, , , 
1618797029.336513, , , , -0.117848, -0.030180, 0.032758, , , 
1618797029.414115, , , , -0.081683, -0.001979, 0.012353, , , 
1618797029.491156, , , , -0.048530, 0.020076, -0.015994, , , 
1618797029.569193, , , , -0.038636, -0.022444, -0.039025, , , 
1618797029.6463861, , , , 0.090743, -0.043582, -0.062853, , , 
1618797029.7222009, , , , 0.094049, -0.149506, -0.075359, , , 
1618797029.801219, , , , 0.193216, -0.207793, -0.047986, , , 
1618797029.877979, , , , 0.106820, -0.178036, -0.049745, , , 
1618797029.955343, , , , 0.061820, -0.151425, -0.067885, , , 
1618797030.034027, , , , -0.044896, -0.150029, -0.072945, , , 
1618797030.115738, , , , 0.095666, -0.098348, -0.034728, , , 
1618797030.192984, , , , -0.019111, -0.201337, -0.012645, , , 
1618797030.269716, , , , 0.238342, -0.216720, -0.062485, , , 
1618797030.348038, , , , 0.230685, -0.095223, -0.124212, , , 
1618797030.425228, , , , 0.251802, -0.189052, -0.144595, , , 
1618797030.502512, , , , 0.163608, -0.164313, -0.133153, , , 
1618797030.5817618, , , , 0.248766, -0.196828, -0.091448, , , 
1618797030.659802, , , , -0.091285, 0.031603, -0.155770, , , 
1618797030.737642, , , , 0.139085, -0.001179, -0.120236, , , 
1618797030.8141708, , , , 0.109647, 0.086993, -0.185100, , , 
1618797030.892987, , , , -0.066411, -0.001054, -0.135012, , , 
1618797030.972382, , , , -0.240207, 0.083527, -0.071899, , , 
1618797031.048712, , , , -0.173255, 0.084502, -0.051760, , , 
1618797031.125651, , , , -0.174453, 0.047256, 0.031383, , , 
1618797031.205159, , , , -0.183769, 0.036810, 0.062058, , , 
1618797031.2826262, , , , -0.270391, 0.052568, 0.069020, , , 
1618797031.360529, , , , -0.630429, 0.258653, 0.057914, , , 
1618797031.437933, , , , 0.012735, -0.084841, 0.224788, , , 
1618797031.514348, , , , -0.102620, 0.149881, 0.084771, , , 
1618797031.5937328, , , , -0.292535, 0.212804, 0.088567, , , 
1618797031.6704612, , , , -0.164523, 0.091410, 0.152973, , , 
1618797031.747926, , , , -0.124186, 0.043760, 0.163331, , , 
1618797031.8256822, , , , -0.044388, 0.072380, 0.088090, , , 
1618797031.9037352, , , , 0.041239, 0.008448, 0.130220, , , 
1618797031.9826698, , , , 0.039552, -0.004326, 0.097532, , , 
1618797032.0594249, , , , 0.097850, 0.022283, 0.074882, , , 
1618797032.137655, , , , 0.144440, 0.018305, 0.080456, , , 
1618797032.214961, , , , 0.186679, 0.126366, 0.067252, , , 
1618797032.2941961, , , , 0.223969, 0.075888, 0.071800, , , 
1618797032.3711061, , , , 0.292235, 0.015071, 0.094323, , , 
1618797032.4487271, , , , 0.240510, 0.113548, 0.057852, , , 
1618797032.526133, , , , 0.253134, -0.125822, 0.059375, , , 
1618797032.6054502, , , , 0.282056, -0.098550, -0.027404, , , 
1618797032.6832762, , , , 0.077179, -0.060484, -0.085088, , , 
1618797032.761489, , , , 0.113230, 0.009319, -0.086402, , , 
1618797032.839676, , , , -0.035703, -0.091069, -0.074079, , , 
1618797032.917315, , , , -0.020909, -0.178975, -0.071765, , , 
1618797032.997678, , , , 0.064500, -0.159171, -0.054538, , , 
1618797033.075746, , , , 0.020827, -0.136864, -0.072423, , , 
1618797033.1539412, , , , 0.008677, -0.050547, -0.077264, , , 
1618797033.23301, , , , 0.172628, -0.101618, -0.033914, , , 
1618797033.3121328, , , , -0.011489, -0.087416, -0.049655, , , 
1618797033.391094, , , , -0.073683, -0.139876, -0.059827, , , 
1618797033.4696898, , , , -0.017972, -0.356669, -0.073607, , , 
1618797033.548627, , , , 0.109057, 0.030816, -0.115996, , , 
1618797033.627657, , , , -0.191451, -0.112580, -0.015033, , , 
1618797033.708198, , , , 0.007099, -0.170002, -0.110104, , , 
1618797033.786055, , , , -0.076193, 0.003863, -0.082455, , , 
1618797033.864398, , , , 0.001915, -0.141259, -0.031255, , , 
1618797033.9429111, , , , 0.088111, -0.078634, 0.006685, , , 
1618797034.022202, , , , -0.219137, 0.049140, 0.012006, , , 
1618797034.101005, , , , -0.181221, 0.005644, 0.053413, , , 
1618797034.18016, , , , -0.228655, 0.048159, 0.070148, , , 
1618797034.261251, , , , -0.246909, 0.045900, 0.064236, , , 
1618797034.3422918, , , , -0.600813, 0.228811, 0.066927, , , 
1618797034.420558, , , , -0.000605, 0.071725, 0.107865, , , 
1618797034.499946, , , , -0.069453, 0.056149, 0.008961, , , 
1618797034.580291, , , , -0.222398, 0.076382, 0.048729, , , 
1618797034.659437, , , , 0.030119, 0.059888, 0.022149, , , 
1618797034.738559, , , , -0.115073, 0.093888, 0.053472, , , 
1618797034.81665, , , , -0.007934, 0.101220, 0.035713, , , 
1618797034.89627, , , , 0.016392, 0.130198, 0.034861, , , 
1618797034.975801, , , , 0.076280, 0.202002, 0.020578, , , 
1618797035.054813, , , , 0.342463, 0.120331, 0.031242, , , 
1618797035.136993, , , , 0.235191, 0.154882, 0.044335, , , 
1618797035.215868, , , , -0.002861, 0.044281, 0.004699, , , 
1618797035.296928, , , , 0.242962, -0.004695, -0.003838, , , 
1618797035.376549, , , , 0.148086, 0.170933, -0.112326, , , 
1618797035.455601, , , , 0.280253, -0.007425, -0.079052, , , 
1618797035.5353122, , , , 0.298287, -0.040341, -0.078518, , , 
1618797035.6150122, , , , 0.131709, -0.047803, -0.101103, , , 
1618797035.695475, , , , 0.185127, -0.091059, -0.062144, , , 
1618797035.7756128, , , , 0.039040, -0.091123, -0.036613, , , 
1618797035.854723, , , , -0.035960, -0.212305, 0.000093, , , 
1618797035.934382, , , , -0.032953, -0.364500, -0.052994, , , 
1618797036.013214, , , , 0.140567, -0.112170, -0.057181, , , 
1618797036.093596, , , , 0.093260, -0.321181, -0.081152, , , 
1618797036.172272, , , , 0.014362, -0.209144, -0.081577, , , 
1618797036.253429, , , , 0.203008, -0.175365, -0.107749, , , 
1618797036.332403, , , , 0.091740, -0.234769, -0.102542, , , 
1618797036.412921, , , , 0.098473, -0.333727, -0.082482, , , 
1618797036.493209, , , , -0.407096, 0.127070, -0.053869, , , 
1618797036.574718, , , , -0.234395, -0.155994, 0.051785, , , 
1618797036.654698, , , , -0.124429, -0.049137, 0.010126, , , 
1618797036.734933, , , , -0.193672, 0.013891, 0.001648, , , 
1618797036.814021, , , , -0.157908, -0.065696, 0.016543, , , 
1618797036.8953729, , , , -0.062558, 0.005650, 0.000132, , , 
1618797036.974566, , , , -0.247758, 0.011166, 0.022861, , , 
1618797037.055826, , , , -0.391301, 0.048935, -0.051646, , , 
1618797037.1343699, , , , -0.094418, 0.080786, 0.045065, , , 
1618797037.214292, , , , -0.184222, 0.045646, -0.002110, , , 
1618797037.295435, , , , -0.146270, -0.054864, 0.035728, , , 
1618797037.375401, , , , -0.032225, -0.019258, 0.021374, , , 
1618797037.455381, , , , -0.187697, -0.007489, 0.043917, , , 
1618797037.537259, , , , 0.177980, -0.142994, 0.002935, , , 
1618797037.616723, , , , 0.065075, -0.090887, 0.007793, , , 
1618797037.698123, , , , -0.020889, -0.126512, 0.008165, , , 
1618797037.777565, , , , 0.132488, -0.146201, -0.011948, , , 
1618797037.858352, , , , 0.193435, -0.152123, -0.011421, , , 
1618797037.939969, , , , 0.503945, -0.068469, -0.065991, , , 
1618797038.019557, , , , 0.309068, -0.295977, 0.011294, , , 
1618797038.10106, , , , 0.382082, -0.191409, 0.026464, , , 
1618797038.180928, , , , -0.002428, -0.055209, 0.065885, , , 
1618797038.2614279, , , , 0.087914, -0.108411, 0.037898, , , 
1618797038.340563, , , , 0.162116, -0.364250, -0.034455, , , 
1618797038.420902, , , , 0.183429, -0.293158, -0.048171, , , 
1618797038.502689, , , , 0.259021, -0.442259, -0.110093, , , 
1618797038.583574, , , , 0.076920, -0.264553, -0.163905, , , 
1618797038.663748, , , , 0.114407, -0.371582, -0.406448, , , 
1618797038.7445722, , , , 0.145826, -0.302166, -0.101045, , , 
1618797038.825749, , , , -0.019483, -0.371161, -0.273832, , , 
1618797038.906729, , , , 0.175941, -0.356400, -0.073102, , , 
1618797038.9878001, , , , 0.083358, -0.231847, -0.104877, , , 
1618797039.066885, , , , 0.079374, -0.280358, -0.102753, , , 
1618797039.149644, , , , 0.071314, -0.142574, -0.153454, , , 
1618797039.230129, , , , 0.103265, -0.185148, -0.050157, , , 
1618797039.3120608, , , , 0.065064, -0.245463, -0.140298, , , 
1618797039.392576, , , , 0.088306, -0.211416, -0.183869, , , 
1618797039.472753, , , , 0.089010, -0.235141, -0.133044, , , 
1618797039.5536242, , , , 0.008221, -0.209164, -0.077091, , , 
1618797039.6342092, , , , -0.082521, -0.264159, -0.062790, , , 
1618797039.715059, , , , 0.094505, -0.308161, -0.041105, , , 
1618797039.797927, , , , 0.001669, -0.155197, 0.007458, , , 
1618797039.891323, , , , -0.016408, -0.095872, 0.047351, , , 
1618797039.9764152, , , , 0.053285, -0.064824, -0.031132, , , 
1618797041.341517, , , , 0.048687, -0.001537, -0.003069, , , 
1618797043.7446508, , , , 0.038605, -0.008921, 0.180605, , , 
1618797044.4534101, , , , 0.012562, -0.038597, 0.011704, , , 
1618797045.149591, , , , -0.045981, -0.019211, -0.022962, , , 
1618797046.048455, , , , -0.014313, -0.065986, 0.001611, , , 
1618797046.941719, , , , -0.070416, 0.091019, -0.035966, , , 
1618797047.7134662, , , , -0.099554, 0.112848, 0.007517, , , 
1618797048.322362, , , , 0.099419, -0.562133, 0.027091, , , 
1618797049.079286, , , , 0.005777, -0.352420, -0.011592, , , 
1618797049.686788, , , , -0.064143, 0.081632, -0.062483, , , 
1618797050.605942, , , , 0.172483, -0.206869, -0.026779, , , 
1618797051.353699, , , , -0.013054, -0.071035, 0.013858, , , 
1618797052.097124, , , , -0.019242, 0.034518, -0.073157, , , 
1618797052.841599, , , , -0.002741, -0.033118, -0.017381, , , 
1618797053.553551, , , , -0.060389, -0.072987, 0.005967, , , 
1618797054.160187, , , , 0.053569, 0.147342, -0.008858, , , 
1618797054.904598, , , , -0.069598, -0.037873, -0.031025, , , 
1618797055.539022, , , , 0.021515, -0.015773, -0.008034, , , 
1618797056.2541308, , , , -0.031830, -0.018577, -0.024153, , , 
1618797056.8822489, , , , 0.016391, 0.012994, -0.024346, , , 
1618797057.580745, , , , -0.150294, -0.032492, 0.054525, , , 
1618797058.200152, , , , -0.038562, -0.025220, -0.007772, , , 
1618797059.010396, , , , 0.005703, 0.027413, -0.005647, , , 
1618797059.7504458, , , , 0.026194, -0.021939, 0.008915, , , 
1618797060.410265, , , , -0.017800, 0.084401, -0.023226, , , 
1618797061.144915, , , , 0.094554, -0.089484, -0.062284, , , 
1618797061.753077, , , , 0.036220, 0.028890, -0.030521, , , 
1618797062.588851, , , , -0.484651, 0.761664, 0.068985, , , 
1618797063.39921, , , , -0.119831, 0.572139, 0.413373, , , 
1618797063.6311731, , , , -0.007929, 0.242117, 0.070604, , , 
1618797063.758754, , , , -0.103233, 0.006605, 0.148860, , , 
1618797063.873358, , , , -0.202835, 0.121558, 0.195779, , , 
1618797063.935983, , , , -0.467363, 0.221121, 0.188066, , , 
1618797064.0168471, , , , -0.200214, -0.074836, -0.120051, , , 
1618797064.077447, , , , 0.032187, 0.077551, -0.051788, , , 
1618797064.1716552, , , , 0.150348, -0.119092, -0.030057, , , 
1618797064.27216, , , , 0.052818, -0.045091, -0.027639, , , 
1618797064.36956, , , , 0.014266, -0.088686, -0.033713, , , 
1618797064.4634628, , , , 0.013770, -0.049896, -0.018760, , , 
1618797064.576566, , , , 0.103066, -0.026205, 0.021972, , , 
1618797064.667289, , , , -0.160629, 0.011449, 0.016168, , , 