SamplingTime, AccelerationX, AccelerationY, AccelerationZ, GyroX, GyroY, GyroZ, MagneticFieldX, MagneticFieldY, MagneticFieldZ
1618796243.883507, , , , 0.044395, -0.005357, -0.013735, , , 
1618796243.954681, , , , 0.027625, -0.067405, -0.033423, , , 
1618796243.9830642, , , , 0.026404, -0.067855, -0.025147, , , 
1618796244.032806, , , , 0.013785, -0.086119, -0.039221, , , 
1618796244.0834432, , , , 0.062284, -0.090376, -0.075851, , , 
1618796244.133009, , , , 0.039230, 0.119558, -0.032976, , , 
1618796244.1834369, , , , -0.042990, 0.262504, -0.080065, , , 
1618796244.232491, , , , -0.031252, 0.346097, -0.156821, , , 
1618796244.283444, , , , 0.037552, -0.478408, -0.343326, , , 
1618796244.336007, , , , 0.229176, -0.270882, -0.201152, , , 
1618796244.3896341, , , , 0.198553, 0.220408, -0.152856, , , 
1618796244.443173, , , , 0.333998, -0.344622, -0.246859, , , 
1618796244.483439, , , , -0.029273, 0.134257, -0.196803, , , 
1618796244.5342932, , , , 0.256129, -0.238505, -0.132652, , , 
1618796244.5895271, , , , 0.003926, 0.219057, -0.164672, , , 
1618796244.644155, , , , -0.143897, 0.177322, -0.016574, , , 
1618796244.6834369, , , , 0.069009, 0.118189, 0.050125, , , 
1618796244.7362351, , , , 0.015649, 0.119178, -0.014399, , , 
1618796244.7835011, , , , 0.126446, -0.318183, 0.103797, , , 
1618796244.833431, , , , 0.112196, 0.019079, 0.085895, , , 
1618796244.8834481, , , , 0.084304, 0.121313, 0.027559, , , 
1618796244.937214, , , , -0.164382, 0.218403, -0.109402, , , 
1618796244.989584, , , , 0.107455, 0.190772, -0.036674, , , 
1618796245.037308, , , , -0.013932, -0.065294, 0.035568, , , 
1618796245.08457, , , , -0.058856, 0.046615, 0.041366, , , 
1618796245.132491, , , , 0.132658, -0.061391, 0.099084, , , 
1618796245.183436, , , , -0.235471, 0.246318, 0.020645, , , 
1618796245.23343, , , , -0.077737, 0.154708, -0.020084, , , 
1618796245.283442, , , , -0.239062, 0.175436, -0.051442, , , 
1618796245.332593, , , , -0.000232, -0.042898, -0.025838, , , 
1618796245.383434, , , , -0.169702, -0.057364, -0.024893, , , 
1618796245.432538, , , , -0.086253, -0.044194, -0.038773, , , 
1618796245.483443, , , , -0.129289, -0.027478, -0.042235, , , 
1618796245.532593, , , , -0.152013, 0.018951, -0.051089, , , 
1618796245.582706, , , , -0.180010, -0.012428, -0.042114, , , 
1618796245.633432, , , , -0.233642, -0.008101, -0.046148, , , 
1618796245.68344, , , , -0.048181, -0.219644, 0.004361, , , 
1618796245.732575, , , , -0.257727, -0.000958, -0.040667, , , 
1618796245.783433, , , , -0.059230, -0.091737, -0.003330, , , 
1618796245.8326092, , , , -0.158237, -0.016217, -0.007929, , , 
1618796245.8834438, , , , -0.054944, 0.002694, 0.005353, , , 
1618796245.932599, , , , -0.034043, -0.014867, -0.002790, , , 
1618796245.98343, , , , -0.029543, 0.010350, -0.005989, , , 
1618796246.033434, , , , 0.001350, -0.009031, 0.000989, , , 
1618796246.082529, , , , 0.020648, -0.013318, 0.003255, , , 
1618796246.132633, , , , -0.007645, 0.014893, 0.000755, , , 
1618796246.1834269, , , , 0.054157, 0.080047, -0.003523, , , 
1618796246.232624, , , , -0.081446, 0.074892, 0.001884, , , 
1618796246.283442, , , , 0.070403, -0.000905, 0.030483, , , 
1618796246.332658, , , , 0.045291, 0.037679, 0.030346, , , 
1618796246.38343, , , , 0.029018, 0.101186, -0.003791, , , 
1618796246.4334269, , , , 0.056224, 0.127966, -0.023209, , , 
1618796246.483444, , , , -0.008746, 0.082330, -0.014653, , , 
1618796246.532474, , , , 0.075722, 0.021321, 0.009401, , , 
1618796246.582797, , , , 0.007738, 0.016941, 0.003104, , , 
1618796246.632715, , , , 0.023532, -0.043132, 0.001237, , , 
1618796246.683459, , , , 0.041664, -0.156557, 0.014343, , , 
1618796246.732679, , , , 0.153495, 0.033606, -0.031149, , , 
1618796246.783433, , , , 0.038645, -0.097968, -0.000474, , , 
1618796246.833436, , , , 0.133703, -0.045145, -0.011290, , , 
1618796246.883497, , , , 0.130681, -0.027484, -0.005773, , , 
1618796246.932632, , , , 0.316139, -0.046483, 0.023166, , , 
1618796246.983447, , , , 0.026472, 0.054995, -0.023551, , , 
1618796247.032716, , , , 0.076573, -0.161237, 0.040102, , , 
1618796247.083469, , , , 0.043502, -0.052028, -0.006287, , , 
1618796247.135581, , , , 0.023566, -0.076562, -0.019679, , , 
1618796247.187309, , , , 0.013638, -0.033511, -0.045991, , , 
1618796247.235853, , , , -0.100998, 0.026719, -0.072933, , , 
1618796247.282938, , , , -0.043592, 0.092770, -0.070947, , , 
1618796247.332666, , , , 0.075036, -0.055459, 0.007718, , , 
1618796247.383431, , , , 0.010574, 0.027173, -0.048260, , , 
1618796247.4326072, , , , -0.036864, 0.019895, -0.029030, , , 
1618796247.483437, , , , -0.024548, 0.009434, -0.018382, , , 
1618796247.5326262, , , , -0.038155, 0.022642, -0.031379, , , 
1618796247.583426, , , , 0.052371, -0.031554, -0.006168, , , 
1618796247.633429, , , , 0.027041, 0.027754, -0.017136, , , 
1618796247.683443, , , , 0.093267, 0.015281, 0.006904, , , 
1618796247.732541, , , , 0.165294, 0.023470, 0.015747, , , 
1618796247.783461, , , , 0.070566, 0.011819, 0.011859, , , 
1618796247.832605, , , , 0.088335, -0.002422, 0.032448, , , 
1618796247.8834949, , , , 0.094745, 0.003305, -0.000769, , , 
1618796247.932561, , , , 0.129738, -0.032483, -0.009035, , , 
1618796247.9834309, , , , -0.047059, -0.011628, -0.019741, , , 
1618796248.033427, , , , -0.012320, -0.016896, -0.023850, , , 
1618796248.0834398, , , , -0.023923, -0.013410, -0.018832, , , 
1618796248.132512, , , , 0.017983, -0.039801, -0.019007, , , 
1618796248.1825209, , , , -0.006625, -0.011387, -0.015363, , , 
1618796248.232528, , , , -0.019963, 0.001737, -0.022485, , , 
1618796248.283437, , , , 0.025660, 0.003547, -0.008447, , , 
1618796248.332499, , , , -0.033641, 0.003800, -0.000366, , , 
1618796248.383982, , , , 0.039154, -0.018635, -0.004147, , , 
1618796248.433504, , , , -0.032326, 0.056823, -0.031110, , , 
1618796248.4834409, , , , 0.042000, 0.011625, -0.004026, , , 
1618796248.5325851, , , , -0.003504, 0.002863, -0.008726, , , 
1618796248.583426, , , , -0.071026, 0.044172, -0.008445, , , 
1618796248.6325068, , , , -0.057827, 0.022646, -0.005089, , , 
1618796248.682764, , , , -0.090538, 0.034264, -0.015714, , , 
1618796248.732549, , , , -0.015021, 0.071287, -0.018505, , , 
1618796248.7834249, , , , -0.008689, 0.056708, -0.026714, , , 
1618796248.8334389, , , , -0.032454, -0.028665, -0.027090, , , 
1618796248.8834372, , , , -0.102228, -0.023464, -0.043599, , , 
1618796248.9325361, , , , -0.014021, -0.072031, -0.043034, , , 
1618796248.983426, , , , 0.039244, -0.144615, -0.015517, , , 
1618796249.032576, , , , -0.060934, 0.085350, -0.072101, , , 
1618796249.083437, , , , 0.075802, -0.120635, -0.000349, , , 
1618796249.1324391, , , , -0.112623, -0.013071, -0.032713, , , 
1618796249.183425, , , , -0.053505, -0.082273, -0.007189, , , 
1618796249.232516, , , , -0.112240, -0.031894, -0.022912, , , 
1618796249.2834349, , , , -0.081359, -0.038475, -0.011455, , , 
1618796249.3324351, , , , -0.085065, -0.109847, 0.009906, , , 
1618796249.382564, , , , -0.085359, 0.000635, -0.017525, , , 
1618796249.432509, , , , -0.033131, -0.057416, 0.008932, , , 
1618796249.483436, , , , -0.098948, -0.017794, -0.006267, , , 
1618796249.5327601, , , , -0.121390, -0.017872, -0.013439, , , 
1618796249.5834231, , , , -0.171814, 0.048105, -0.001432, , , 
1618796249.633425, , , , -0.004014, -0.161258, 0.041820, , , 
1618796249.6847239, , , , -0.154801, -0.004046, -0.015345, , , 
1618796249.735033, , , , -0.064478, 0.004023, -0.009736, , , 
1618796249.784573, , , , -0.040824, 0.004830, 0.009676, , , 
1618796249.8338819, , , , -0.066486, 0.010945, -0.006327, , , 
1618796249.883493, , , , -0.006636, -0.042031, 0.003358, , , 
1618796249.933332, , , , -0.003661, 0.003096, 0.003319, , , 
1618796249.983443, , , , -0.052428, -0.021947, -0.003545, , , 
1618796250.0336819, , , , 0.020942, -0.042508, -0.001218, , , 
1618796250.083671, , , , -0.050357, -0.040716, -0.005862, , , 
1618796250.1347919, , , , -0.027713, 0.095643, -0.048957, , , 
1618796250.184905, , , , -0.120577, -0.054602, 0.016846, , , 
1618796250.234494, , , , -0.018850, -0.065369, 0.000397, , , 
1618796250.284581, , , , -0.082885, -0.004530, -0.005553, , , 
1618796250.3340359, , , , -0.006676, 0.009885, -0.009306, , , 
1618796250.383491, , , , 0.019274, -0.001816, -0.005809, , , 
1618796250.433518, , , , -0.012937, -0.004349, -0.006065, , , 
1618796250.483496, , , , 0.040855, -0.065997, 0.002148, , , 
1618796250.532631, , , , 0.003829, -0.013313, -0.002390, , , 
1618796250.583427, , , , 0.013868, -0.068773, 0.005940, , , 
1618796250.633181, , , , -0.005741, -0.103217, 0.019017, , , 
1618796250.683434, , , , 0.096667, 0.016936, -0.021989, , , 
1618796250.733525, , , , -0.015927, 0.064433, -0.021423, , , 
1618796250.784284, , , , 0.171247, -0.007090, 0.006585, , , 
1618796250.833613, , , , 0.212258, 0.071923, -0.007789, , , 
1618796250.883502, , , , 0.209263, 0.043837, -0.015320, , , 
1618796250.9334779, , , , 0.087237, 0.047059, -0.028374, , , 
1618796250.983502, , , , 0.127685, -0.025580, -0.006469, , , 
1618796251.0335999, , , , 0.108087, 0.041317, -0.018684, , , 
1618796251.083434, , , , 0.109436, -0.028620, -0.011918, , , 
1618796251.13328, , , , 0.105330, -0.026901, -0.016938, , , 
1618796251.1851978, , , , 0.067298, -0.056853, -0.021863, , , 
1618796251.2349381, , , , -0.039878, 0.097463, -0.084765, , , 
1618796251.284532, , , , 0.112898, -0.097906, -0.022592, , , 
1618796251.3344631, , , , 0.024595, -0.038023, -0.035674, , , 
1618796251.384986, , , , -0.077506, 0.038964, -0.045203, , , 
1618796251.434421, , , , -0.045318, -0.011413, -0.009040, , , 
1618796251.4837399, , , , -0.050092, 0.057749, -0.026181, , , 
1618796251.533865, , , , 0.074277, -0.047768, 0.001969, , , 
1618796251.583774, , , , 0.212177, -0.058849, -0.005797, , , 
1618796251.633497, , , , 0.000142, -0.004736, -0.012857, , , 
1618796251.683494, , , , -0.007743, 0.004847, -0.018349, , , 
1618796251.7333488, , , , 0.113749, -0.096280, 0.009435, , , 
1618796251.7834911, , , , -0.021055, 0.024007, -0.030684, , , 
1618796251.833472, , , , 0.169545, -0.042649, 0.014272, , , 
1618796251.883251, , , , 0.092174, -0.016739, -0.014079, , , 
1618796251.933124, , , , -0.027984, 0.028697, 0.000568, , , 
1618796251.983762, , , , 0.055295, -0.033635, 0.001480, , , 
1618796252.033452, , , , 0.001876, 0.037463, 0.018577, , , 
1618796252.083517, , , , 0.016323, -0.032011, 0.028523, , , 
1618796252.134468, , , , -0.001147, 0.039735, 0.008171, , , 
1618796252.1848888, , , , 0.012156, -0.002207, 0.017403, , , 
1618796252.234867, , , , -0.005127, -0.000156, -0.003369, , , 
1618796252.2850142, , , , 0.005825, -0.018610, 0.000260, , , 
1618796252.335192, , , , 0.014249, -0.040234, 0.006245, , , 
1618796252.386086, , , , 0.031027, -0.042681, -0.005332, , , 
1618796252.436531, , , , 0.053061, -0.069045, 0.004161, , , 
1618796252.486938, , , , -0.101532, -0.014951, -0.007894, , , 
1618796252.5377731, , , , -0.037016, -0.016360, 0.003173, , , 
1618796252.587923, , , , -0.087060, 0.007133, -0.007846, , , 
1618796252.639113, , , , 0.006160, 0.012401, -0.010338, , , 
1618796252.689287, , , , -0.034289, -0.005143, -0.000762, , , 
1618796252.739408, , , , 0.006597, -0.009903, -0.002533, , , 
1618796252.78975, , , , -0.024283, -0.004621, -0.012838, , , 
1618796252.8402429, , , , 0.006414, 0.016406, -0.014630, , , 
1618796252.890269, , , , 0.062595, -0.132578, 0.012660, , , 
1618796252.941076, , , , -0.075969, 0.106220, -0.053124, , , 
1618796252.991797, , , , 0.110018, -0.154214, 0.006878, , , 
1618796253.043818, , , , -0.123202, 0.015280, -0.031274, , , 
1618796253.095859, , , , -0.047180, -0.054752, -0.017997, , , 
1618796253.147299, , , , -0.168849, -0.020682, -0.016433, , , 
1618796253.183414, , , , -0.088661, 0.017494, -0.023879, , , 
1618796253.233416, , , , 0.019200, -0.021678, -0.013969, , , 
1618796253.284338, , , , -0.043733, 0.025656, -0.020986, , , 
1618796253.3358989, , , , -0.050182, -0.026730, -0.012142, , , 
1618796253.389538, , , , -0.103857, -0.030744, -0.010919, , , 
1618796253.441968, , , , -0.082950, -0.088125, 0.001770, , , 
1618796253.492892, , , , -0.191180, 0.158930, -0.053345, , , 
1618796253.5444589, , , , 0.013197, -0.178158, 0.049389, , , 
1618796253.5953221, , , , -0.177387, 0.041246, -0.029836, , , 
1618796253.646843, , , , -0.022922, -0.002676, -0.017376, , , 
1618796253.697698, , , , -0.083964, 0.046329, -0.024857, , , 
1618796253.733413, , , , -0.146181, 0.044824, -0.013350, , , 
1618796253.791069, , , , -0.032061, -0.017427, 0.004996, , , 
1618796253.851285, , , , -0.067466, -0.020548, 0.009132, , , 
1618796253.8831701, , , , -0.087412, -0.011002, -0.005296, , , 
1618796253.943793, , , , -0.082585, -0.047471, 0.013347, , , 
1618796254.004809, , , , -0.104577, -0.027505, 0.022340, , , 
1618796254.032761, , , , -0.026394, 0.061601, -0.034275, , , 
1618796254.092783, , , , -0.080080, 0.012676, 0.014836, , , 
1618796254.14996, , , , -0.021276, -0.006101, 0.015255, , , 
1618796254.183415, , , , -0.044607, -0.040692, 0.009090, , , 
1618796254.241981, , , , -0.048854, 0.039749, 0.009787, , , 
1618796254.3039498, , , , 0.012342, -0.032580, 0.015985, , , 
1618796254.332916, , , , 0.004655, 0.009896, 0.012002, , , 
1618796254.392819, , , , -0.025237, -0.005365, 0.008705, , , 
1618796254.448866, , , , -0.004173, 0.008521, -0.000232, , , 
1618796254.483418, , , , 0.005499, 0.005239, -0.001447, , , 
1618796254.542211, , , , -0.012782, 0.115318, -0.030691, , , 
1618796254.603004, , , , -0.086379, 0.049200, -0.006886, , , 
1618796254.632958, , , , 0.001752, -0.002582, -0.007855, , , 
1618796254.695118, , , , -0.052379, 0.024973, -0.015353, , , 
1618796254.758714, , , , 0.028199, 0.032385, -0.016814, , , 
1618796254.833428, , , , 0.058680, -0.029109, 0.007278, , , 
1618796254.894254, , , , 0.044062, -0.000052, 0.003344, , , 
1618796254.9563031, , , , 0.065006, 0.030632, 0.004307, , , 
1618796254.98258, , , , 0.106216, 0.040783, 0.001883, , , 
1618796255.0434341, , , , 0.051968, 0.044343, -0.014507, , , 
1618796255.101563, , , , 0.112725, 0.224157, -0.102317, , , 
1618796255.133408, , , , 0.266287, -0.175037, -0.008321, , , 
1618796255.193116, , , , 0.138331, -0.038486, -0.040783, , , 
1618796255.2549381, , , , 0.152038, -0.000656, -0.048354, , , 
1618796255.282686, , , , 0.139676, -0.069210, -0.031475, , , 
1618796255.344074, , , , -0.005771, 0.040348, -0.044811, , , 
1618796255.401025, , , , 0.094236, -0.039702, -0.026115, , , 
1618796255.4334111, , , , 0.074963, 0.009390, -0.043196, , , 
1618796255.492918, , , , 0.044416, 0.003300, -0.050678, , , 
1618796255.554749, , , , 0.040090, 0.015684, -0.054667, , , 
1618796255.58272, , , , 0.009746, -0.009072, -0.040777, , , 
1618796255.643667, , , , -0.031730, 0.090637, -0.065645, , , 
1618796255.700457, , , , 0.174228, -0.097057, 0.007870, , , 
1618796255.7334142, , , , 0.083924, -0.096136, 0.010596, , , 
1618796255.7929401, , , , 0.001578, 0.020051, -0.010486, , , 
1618796255.856834, , , , 0.032602, -0.017099, 0.002399, , , 
1618796255.882551, , , , 0.044237, 0.017485, -0.011417, , , 
1618796255.945229, , , , 0.102071, -0.044511, -0.003283, , , 
1618796256.005004, , , , 0.061220, -0.036946, 0.000175, , , 
1618796256.032796, , , , 0.065041, -0.025572, 0.003133, , , 
1618796256.094757, , , , 0.061081, -0.046834, 0.016374, , , 
1618796256.158879, , , , 0.062524, -0.048263, 0.018103, , , 
1618796256.2328038, , , , 0.019525, 0.034820, -0.020211, , , 
1618796256.295079, , , , 0.080891, -0.044460, 0.002506, , , 
1618796256.357777, , , , -0.038142, 0.011832, -0.024958, , , 
1618796256.433142, , , , -0.032091, -0.007745, -0.023801, , , 
1618796256.4957829, , , , 0.002722, -0.024251, -0.020066, , , 
1618796256.5594149, , , , -0.023543, -0.030061, -0.015936, , , 
1618796256.6331182, , , , -0.016845, -0.059887, -0.006299, , , 
1618796256.6964002, , , , -0.059114, -0.032452, -0.008727, , , 
1618796256.758717, , , , -0.016255, -0.076501, 0.016986, , , 
1618796256.83341, , , , 0.057590, -0.008777, -0.004303, , , 
1618796256.896698, , , , -0.010225, -0.023270, -0.010513, , , 
1618796256.960074, , , , -0.091065, -0.061061, -0.001552, , , 
1618796257.032782, , , , -0.200853, -0.021921, -0.002296, , , 
1618796257.0960422, , , , 0.017953, -0.033855, 0.014230, , , 
1618796257.158638, , , , -0.096105, 0.015851, 0.008829, , , 
1618796257.233418, , , , -0.016217, -0.025960, 0.017536, , , 
1618796257.296607, , , , -0.088715, -0.012330, 0.012096, , , 
1618796257.3600311, , , , -0.078562, -0.012883, 0.004563, , , 
1618796257.432589, , , , -0.064117, 0.173864, -0.028914, , , 
1618796257.496103, , , , 0.077968, -0.106019, 0.038913, , , 
1618796257.559293, , , , -0.148646, 0.053836, -0.001982, , , 
1618796257.633408, , , , -0.102500, 0.015643, 0.011433, , , 
1618796257.696453, , , , -0.114437, 0.009110, 0.011140, , , 
1618796257.7606912, , , , -0.094606, -0.003504, 0.007958, , , 
1618796257.833112, , , , -0.077450, -0.029726, 0.003477, , , 
1618796257.896309, , , , -0.074158, -0.035138, 0.000737, , , 
1618796257.959828, , , , 0.013961, -0.050004, -0.000871, , , 
1618796258.033409, , , , -0.106963, -0.026362, 0.001322, , , 
1618796258.096926, , , , -0.026974, -0.169482, 0.035695, , , 
1618796258.1606212, , , , -0.084287, 0.019016, -0.022158, , , 
1618796258.232543, , , , -0.067892, -0.015368, -0.019090, , , 
1618796258.296064, , , , -0.007645, 0.002820, -0.009570, , , 
1618796258.3597069, , , , -0.015665, -0.032689, -0.009823, , , 
1618796258.4334059, , , , -0.010125, -0.134274, 0.018777, , , 
1618796258.494388, , , , 0.005760, -0.018145, -0.003401, , , 
1618796258.550521, , , , 0.073109, -0.144755, 0.006954, , , 
1618796258.5834079, , , , 0.039019, -0.114040, -0.003367, , , 
1618796258.6431, , , , 0.055421, -0.164655, -0.001445, , , 
1618796258.7062159, , , , 0.045826, -0.034149, -0.017687, , , 
1618796258.7325292, , , , 0.071890, -0.097369, -0.006900, , , 
1618796258.795105, , , , 0.111748, -0.023928, -0.009709, , , 
1618796258.8523521, , , , 0.119575, 0.001399, 0.010690, , , 
1618796258.883451, , , , 0.059304, 0.049980, -0.011649, , , 
1618796258.9461942, , , , 0.134164, -0.033221, 0.025494, , , 
1618796259.010859, , , , 0.116253, 0.046554, -0.009136, , , 
1618796259.0834599, , , , 0.092337, 0.029879, -0.010355, , , 
1618796259.148283, , , , 0.103244, 0.024059, -0.033084, , , 
1618796259.2126498, , , , 0.056533, 0.173076, -0.064819, , , 
1618796259.283417, , , , 0.179453, -0.024965, -0.042848, , , 
1618796259.347718, , , , 0.120946, -0.052536, -0.046507, , , 
1618796259.40626, , , , 0.015275, -0.055407, -0.045858, , , 
1618796259.432939, , , , -0.038665, -0.083764, -0.040481, , , 
1618796259.493843, , , , 0.050634, -0.046953, -0.035449, , , 
1618796259.557677, , , , 0.026747, -0.017033, -0.029895, , , 
1618796259.633401, , , , 0.076680, -0.019068, -0.009698, , , 
1618796259.696024, , , , 0.012976, 0.076150, -0.034520, , , 
1618796259.76069, , , , 0.062175, 0.027890, -0.000718, , , 
1618796259.83279, , , , 0.129221, -0.005151, -0.012521, , , 
1618796259.9000468, , , , -0.016002, 0.025066, -0.026217, , , 
1618796259.9589338, , , , 0.079813, 0.021518, -0.032335, , , 
1618796260.033412, , , , 0.013533, 0.060862, -0.033380, , , 
1618796260.097372, , , , 0.151648, 0.050555, -0.042015, , , 
1618796260.1541672, , , , 0.102635, 0.022430, -0.000610, , , 
1618796260.182826, , , , 0.065974, 0.006853, -0.013504, , , 
1618796260.24504, , , , 0.047357, -0.037443, -0.014338, , , 
1618796260.310782, , , , -0.002948, -0.046903, -0.012748, , , 
1618796260.3834062, , , , -0.065197, 0.010690, -0.031972, , , 
1618796260.44808, , , , 0.078528, -0.086848, -0.006611, , , 
1618796260.5128, , , , -0.079966, -0.001685, -0.020710, , , 
1618796260.582911, , , , -0.104207, -0.078075, 0.000480, , , 
1618796260.644009, , , , -0.139037, -0.066839, 0.013766, , , 
1618796260.700288, , , , -0.001635, -0.060413, 0.024666, , , 
1618796260.756983, , , , -0.090520, -0.019958, 0.000266, , , 
1618796260.782836, , , , -0.055229, -0.005156, 0.002143, , , 
1618796260.839024, , , , -0.029567, -0.048866, 0.007871, , , 
1618796260.896603, , , , -0.080389, 0.003830, -0.002740, , , 
1618796260.9534311, , , , 0.065981, -0.145590, 0.041588, , , 
1618796260.983183, , , , 0.041383, 0.019300, 0.005079, , , 
1618796261.045403, , , , 0.022563, -0.084138, 0.041648, , , 
1618796261.110668, , , , -0.080897, 0.043203, -0.004855, , , 
1618796261.1828408, , , , -0.120488, 0.045573, -0.010712, , , 
1618796261.2438421, , , , -0.188911, 0.013243, -0.006224, , , 
1618796261.30095, , , , -0.144993, -0.043147, 0.003160, , , 
1618796261.333397, , , , -0.221156, 0.014047, -0.025024, , , 
1618796261.395931, , , , -0.070105, -0.003770, -0.012340, , , 
1618796261.461125, , , , -0.121276, 0.013897, -0.023787, , , 
1618796261.533, , , , -0.100910, -0.052351, -0.009361, , , 
1618796261.5938702, , , , -0.160359, 0.057153, -0.050736, , , 
1618796261.650659, , , , -0.019310, -0.041099, 0.015362, , , 
1618796261.707251, , , , -0.208076, -0.001086, -0.016896, , , 
1618796261.7328339, , , , -0.190357, 0.018861, -0.019589, , , 
1618796261.789089, , , , -0.000502, -0.031108, -0.012544, , , 
1618796261.8461561, , , , -0.111261, -0.006967, -0.012309, , , 
1618796261.902899, , , , -0.029646, -0.036870, -0.007176, , , 
1618796261.933367, , , , -0.082180, -0.031925, -0.004418, , , 
1618796261.9954891, , , , 0.014617, -0.045883, 0.013727, , , 
1618796262.0604858, , , , 0.055200, -0.034156, 0.002854, , , 
1618796262.132738, , , , -0.035559, 0.001013, -0.002032, , , 
1618796262.192281, , , , 0.024874, -0.057451, 0.006189, , , 
1618796262.249852, , , , 0.011823, 0.009788, -0.003949, , , 
1618796262.307425, , , , 0.023577, 0.018738, -0.008824, , , 
1618796262.332694, , , , 0.027127, 0.014224, -0.011161, , , 
1618796262.388901, , , , 0.038395, 0.008509, -0.011118, , , 
1618796262.446449, , , , 0.069950, -0.029495, -0.006758, , , 
1618796262.50335, , , , 0.026831, 0.005963, -0.013905, , , 
1618796262.5333462, , , , 0.099185, -0.024968, -0.013208, , , 
1618796262.596086, , , , 0.076066, 0.028528, -0.015597, , , 
1618796262.661334, , , , 0.076772, -0.000959, -0.012715, , , 
1618796262.7328901, , , , 0.071966, 0.095842, -0.044698, , , 
1618796262.792959, , , , 0.098742, 0.007216, -0.016132, , , 
1618796262.850634, , , , 0.044668, 0.055221, -0.014091, , , 
1618796262.9083362, , , , 0.158689, 0.016370, 0.006268, , , 
1618796262.932633, , , , 0.090428, 0.056701, 0.000105, , , 
1618796262.989266, , , , 0.096222, 0.063704, -0.003536, , , 
1618796263.04712, , , , 0.251157, 0.076114, -0.012780, , , 
1618796263.105567, , , , 0.089698, 0.023509, -0.016080, , , 
1618796263.133034, , , , 0.065734, -0.001824, -0.023249, , , 
1618796263.199898, , , , 0.081643, 0.016398, -0.029831, , , 
1618796263.262125, , , , 0.052665, -0.041607, -0.000608, , , 
1618796263.332872, , , , 0.149999, -0.106587, 0.000789, , , 
1618796263.3999162, , , , -0.029317, -0.006475, -0.016962, , , 
1618796263.466037, , , , -0.003829, 0.012504, -0.022676, , , 
1618796263.532428, , , , -0.028182, 0.034331, -0.024268, , , 
1618796263.596417, , , , 0.040565, -0.025398, -0.006494, , , 
1618796263.654305, , , , 0.015831, 0.009637, -0.001643, , , 
1618796263.683116, , , , 0.008519, -0.003600, -0.009228, , , 
1618796263.746704, , , , 0.057715, 0.051728, -0.009701, , , 
1618796263.8134599, , , , 0.068764, -0.059187, -0.010962, , , 
1618796263.8825622, , , , 0.085960, -0.038356, -0.023985, , , 
1618796263.945469, , , , 0.069746, -0.025456, -0.020569, , , 
1618796264.00323, , , , -0.035647, 0.011640, -0.025276, , , 
1618796264.033361, , , , 0.006089, -0.040701, 0.000747, , , 
1618796264.096777, , , , -0.008279, -0.031871, 0.000088, , , 
1618796264.163673, , , , 0.017744, -0.022955, -0.001859, , , 
1618796264.232548, , , , 0.002835, -0.015265, -0.003085, , , 
1618796264.293339, , , , 0.008542, -0.026815, 0.002454, , , 
1618796264.351928, , , , 0.010238, -0.086123, 0.014059, , , 
1618796264.410644, , , , -0.028122, -0.007942, -0.019096, , , 
1618796264.4324188, , , , -0.014130, 0.002969, -0.011127, , , 
1618796264.4897618, , , , 0.079709, -0.088748, 0.008371, , , 
1618796264.547978, , , , -0.118197, 0.007310, -0.011296, , , 
1618796264.606466, , , , -0.088235, -0.051286, 0.006752, , , 
1618796264.632916, , , , -0.134657, -0.028002, -0.008727, , , 
1618796264.6903992, , , , -0.108613, -0.041535, -0.002918, , , 
1618796264.749691, , , , -0.014614, -0.027043, -0.004690, , , 
1618796264.811779, , , , -0.060723, -0.035441, 0.002187, , , 
1618796264.883298, , , , -0.086941, -0.031503, 0.000898, , , 
1618796264.947606, , , , -0.050894, -0.117315, 0.021975, , , 
1618796265.0150518, , , , 0.030972, -0.087756, 0.003990, , , 
1618796265.0834851, , , , -0.042865, 0.038395, -0.010500, , , 
1618796265.147325, , , , 0.010687, -0.075672, -0.011345, , , 
1618796265.205923, , , , -0.154644, 0.017353, -0.029681, , , 
1618796265.2329621, , , , -0.126698, -0.019181, -0.014828, , , 
1618796265.29706, , , , -0.117418, -0.052106, -0.006391, , , 
1618796265.358082, , , , -0.087931, -0.053808, -0.001137, , , 
1618796265.3826451, , , , -0.075208, -0.114869, 0.012451, , , 
1618796265.441601, , , , -0.084391, -0.017157, -0.015067, , , 
1618796265.500832, , , , -0.158793, -0.073583, 0.017581, , , 
1618796265.559478, , , , -0.137149, 0.092577, -0.042292, , , 
1618796265.582557, , , , -0.009794, -0.113805, 0.018945, , , 
1618796265.640363, , , , -0.130477, -0.025744, -0.014736, , , 
1618796265.699342, , , , -0.069750, -0.018302, -0.016443, , , 
1618796265.75921, , , , -0.081639, 0.016609, -0.022600, , , 
1618796265.782754, , , , -0.131387, 0.018847, -0.013597, , , 
1618796265.841073, , , , -0.007443, -0.041430, -0.005794, , , 
1618796265.900142, , , , -0.022039, -0.003160, -0.015630, , , 
1618796265.959111, , , , -0.073412, -0.009753, -0.009415, , , 
1618796265.9826288, , , , -0.019035, 0.009409, -0.012426, , , 
1618796266.0402699, , , , 0.003024, -0.027558, -0.012008, , , 
1618796266.099351, , , , 0.043090, 0.003766, -0.024477, , , 
1618796266.157792, , , , -0.145090, 0.019409, -0.026316, , , 
1618796266.182849, , , , -0.101854, -0.030905, -0.006188, , , 
1618796266.240216, , , , -0.039566, -0.047858, -0.002211, , , 
1618796266.297852, , , , -0.012667, -0.050158, 0.002629, , , 
1618796266.355912, , , , 0.028653, -0.051761, -0.003221, , , 
1618796266.383141, , , , 0.036996, -0.062789, -0.004522, , , 
1618796266.440978, , , , 0.058828, -0.060116, -0.009625, , , 
1618796266.499846, , , , 0.000019, 0.012277, -0.017461, , , 
1618796266.560007, , , , 0.035486, -0.006088, -0.009451, , , 
1618796266.5825639, , , , 0.027008, 0.025107, -0.023565, , , 
1618796266.640868, , , , 0.072929, 0.134285, -0.044233, , , 
1618796266.700366, , , , 0.046846, 0.057874, -0.032904, , , 
1618796266.759726, , , , 0.134639, 0.028657, -0.020090, , , 
1618796266.782619, , , , 0.133595, 0.004282, -0.008645, , , 
1618796266.8403811, , , , 0.140827, 0.093718, -0.014304, , , 
1618796266.898371, , , , 0.096967, 0.079850, -0.020508, , , 
1618796266.955881, , , , 0.158860, -0.031980, -0.006610, , , 
1618796266.983098, , , , 0.155090, -0.023854, -0.005241, , , 
1618796267.043263, , , , 0.121695, -0.098462, 0.005718, , , 
1618796267.1047401, , , , 0.060837, -0.014619, -0.003869, , , 
1618796267.1330972, , , , 0.107240, 0.090169, -0.039931, , , 
1618796267.198124, , , , 0.076393, 0.195888, -0.062333, , , 
1618796267.267062, , , , 0.143149, -0.042273, 0.010274, , , 
1618796267.336601, , , , 0.015412, 0.117611, -0.008430, , , 
1618796267.400756, , , , -0.011110, 0.031680, 0.010538, , , 
1618796267.4607348, , , , 0.019896, 0.021316, 0.000424, , , 
1618796267.482425, , , , 0.043728, -0.010019, 0.003006, , , 
1618796267.541668, , , , 0.030114, 0.017019, -0.006798, , , 
1618796267.6014628, , , , 0.078723, -0.035145, 0.004584, , , 
1618796267.663672, , , , 0.067859, 0.036567, -0.019645, , , 
1618796267.733017, , , , 0.055079, -0.047042, 0.007735, , , 
1618796267.800465, , , , 0.138856, -0.080407, -0.002786, , , 
1618796267.869565, , , , 0.008497, -0.001117, -0.009616, , , 
1618796267.938524, , , , 0.025105, -0.037124, -0.003350, , , 
1618796267.9999619, , , , -0.000009, -0.002664, -0.010337, , , 
1618796268.0606909, , , , 0.031745, -0.009103, -0.010438, , , 
1618796268.083372, , , , -0.011448, 0.001363, -0.009183, , , 
1618796268.143192, , , , 0.029235, -0.042530, -0.010364, , , 
1618796268.2035, , , , -0.001601, -0.031332, -0.013772, , , 
1618796268.2637892, , , , 0.004376, -0.047413, -0.013058, , , 
1618796268.332767, , , , -0.051903, 0.057764, -0.035827, , , 
1618796268.402772, , , , 0.049605, -0.077690, -0.003406, , , 
1618796268.466182, , , , -0.105760, 0.019377, -0.024747, , , 
1618796268.533062, , , , -0.098482, -0.036783, -0.011700, , , 
1618796268.600568, , , , -0.062104, -0.021962, -0.017501, , , 
1618796268.670288, , , , -0.050262, -0.024052, -0.017862, , , 
1618796268.7393909, , , , -0.037736, -0.040796, -0.007959, , , 
1618796268.8019562, , , , -0.093362, 0.005697, -0.013198, , , 
1618796268.863752, , , , -0.047693, -0.030232, -0.018098, , , 
1618796268.932928, , , , -0.089349, 0.139304, -0.065417, , , 
1618796268.9974651, , , , -0.047606, -0.061459, -0.009323, , , 
1618796269.058121, , , , -0.131848, -0.040676, -0.009674, , , 
1618796269.082656, , , , -0.057802, -0.074477, 0.003678, , , 
1618796269.143208, , , , -0.154767, 0.048543, -0.030514, , , 
1618796269.203399, , , , -0.079830, -0.049363, 0.004369, , , 
1618796269.2651, , , , -0.134930, 0.001705, -0.006594, , , 
1618796269.332769, , , , -0.051203, -0.069371, 0.003002, , , 
1618796269.393983, , , , -0.144352, 0.026366, -0.017565, , , 
1618796269.455755, , , , -0.101426, -0.056749, -0.016386, , , 
1618796269.483007, , , , -0.116062, -0.101570, 0.009441, , , 
1618796269.550381, , , , 0.010408, -0.117208, 0.009180, , , 
1618796269.6198611, , , , -0.152019, -0.023030, -0.007284, , , 
1618796269.686101, , , , -0.000819, -0.066035, -0.011748, , , 
1618796269.7477, , , , -0.132226, 0.000909, -0.021813, , , 
1618796269.808871, , , , -0.013711, -0.047724, -0.006267, , , 
1618796269.832566, , , , -0.026059, -0.032810, -0.000456, , , 
1618796269.894208, , , , -0.004139, -0.020341, -0.007813, , , 
1618796269.9578052, , , , -0.067629, -0.034655, -0.013963, , , 
1618796269.982718, , , , 0.004439, -0.069070, 0.004114, , , 
1618796270.042877, , , , -0.085703, -0.072454, -0.009966, , , 
1618796270.1048698, , , , 0.007144, -0.139627, 0.009036, , , 
1618796270.166071, , , , -0.072599, 0.038862, -0.006873, , , 
1618796270.232757, , , , -0.023897, 0.032102, -0.001562, , , 
1618796270.294889, , , , 0.015263, 0.004410, 0.004433, , , 
1618796270.357676, , , , 0.069120, 0.021130, 0.003007, , , 
1618796270.3827748, , , , 0.044540, -0.030255, 0.013830, , , 
1618796270.443873, , , , 0.070747, -0.018056, 0.003410, , , 
1618796270.505667, , , , 0.018119, 0.013004, -0.005335, , , 
1618796270.5330029, , , , 0.062411, 0.001620, -0.010035, , , 
1618796270.601366, , , , 0.021695, -0.060697, -0.000268, , , 
1618796270.663877, , , , 0.202494, -0.050119, -0.033282, , , 
1618796270.732973, , , , 0.131271, 0.012165, -0.021748, , , 
1618796270.802477, , , , 0.124856, 0.008761, -0.010868, , , 
1618796270.873599, , , , 0.064098, 0.071835, -0.025298, , , 
1618796270.940606, , , , 0.161552, -0.000333, -0.015943, , , 
1618796271.003141, , , , 0.083328, 0.016560, -0.029361, , , 
1618796271.065798, , , , 0.165394, -0.075831, -0.011714, , , 
1618796271.1327581, , , , 0.081614, -0.054570, -0.025918, , , 
1618796271.194594, , , , 0.047719, -0.177096, 0.037122, , , 
1618796271.256665, , , , 0.081586, 0.120941, -0.033156, , , 
1618796271.282867, , , , 0.171845, -0.079700, 0.008640, , , 
1618796271.3436909, , , , -0.003780, 0.069133, -0.010190, , , 
1618796271.406853, , , , 0.070764, -0.018185, 0.007887, , , 
1618796271.432796, , , , 0.027497, 0.004966, 0.010368, , , 
1618796271.4936938, , , , 0.081739, 0.100026, -0.006460, , , 
1618796271.555664, , , , 0.056280, -0.004907, 0.011972, , , 
1618796271.583034, , , , 0.013651, 0.037714, -0.003772, , , 
1618796271.650624, , , , 0.102704, -0.022024, 0.004702, , , 
1618796271.721978, , , , 0.007037, 0.023125, 0.000151, , , 
1618796271.787163, , , , 0.097190, -0.115863, 0.030898, , , 
1618796271.849485, , , , 0.073019, 0.127131, -0.036294, , , 
1618796271.911978, , , , 0.074690, -0.044709, -0.015748, , , 
1618796271.9833832, , , , 0.004966, 0.012362, -0.021599, , , 
1618796272.04637, , , , -0.032204, 0.022072, -0.014229, , , 
1618796272.1091099, , , , 0.039347, -0.017840, -0.000070, , , 
1618796272.132545, , , , 0.032262, -0.016341, -0.009992, , , 
1618796272.193069, , , , -0.021859, 0.006663, -0.009331, , , 
1618796272.255824, , , , 0.054981, -0.018118, -0.002976, , , 
1618796272.3182569, , , , -0.033226, -0.015506, -0.007000, , , 
1618796272.383387, , , , 0.008458, -0.035302, -0.009775, , , 
1618796272.444305, , , , -0.026394, 0.062450, -0.035408, , , 
1618796272.50461, , , , 0.073902, -0.100922, -0.000001, , , 
1618796272.5661368, , , , -0.059361, 0.014285, -0.012492, , , 
1618796272.632753, , , , -0.033037, -0.059830, 0.015578, , , 
1618796272.693005, , , , -0.086346, -0.013987, -0.003194, , , 
1618796272.7533221, , , , -0.044570, -0.044411, 0.002407, , , 
1618796272.814794, , , , -0.109476, -0.011898, -0.000064, , , 
1618796272.882986, , , , -0.036763, -0.041937, 0.008158, , , 
1618796272.943359, , , , -0.090740, 0.012233, -0.006366, , , 
1618796273.003724, , , , -0.019394, -0.046781, -0.003975, , , 
1618796273.06517, , , , -0.139481, 0.147547, -0.047103, , , 
1618796273.132942, , , , 0.008934, -0.071695, 0.008121, , , 
1618796273.1960502, , , , -0.171925, 0.014898, -0.006617, , , 
1618796273.256853, , , , -0.112190, 0.052218, -0.022252, , , 
1618796273.2828832, , , , -0.170091, 0.026145, -0.016515, , , 
1618796273.3442922, , , , -0.099465, -0.032825, -0.006253, , , 
1618796273.410626, , , , -0.097376, -0.001970, -0.012508, , , 
1618796273.432705, , , , -0.087395, -0.026174, -0.013667, , , 
1618796273.495794, , , , -0.079861, -0.040946, -0.009080, , , 
1618796273.558998, , , , -0.099496, -0.069301, -0.008653, , , 
1618796273.582578, , , , -0.074986, -0.052188, -0.003041, , , 
1618796273.645402, , , , -0.140652, -0.014999, -0.002744, , , 
1618796273.706695, , , , 0.019835, -0.150792, 0.015419, , , 
1618796273.732964, , , , -0.032669, -0.041846, -0.011513, , , 
1618796273.794887, , , , -0.143695, 0.024366, -0.018705, , , 
1618796273.859582, , , , -0.056137, 0.019443, -0.017747, , , 
1618796273.8824968, , , , -0.108221, 0.008449, -0.004977, , , 
1618796273.945411, , , , 0.013008, -0.028803, 0.005443, , , 
1618796274.008008, , , , -0.013815, 0.081658, -0.017801, , , 
1618796274.032834, , , , 0.031678, -0.016558, -0.001891, , , 
1618796274.09454, , , , -0.041924, -0.006349, -0.002630, , , 
1618796274.156971, , , , -0.036001, -0.019745, -0.007279, , , 
1618796274.182915, , , , -0.062923, -0.081947, 0.001742, , , 
1618796274.2442589, , , , 0.090832, -0.077695, -0.008233, , , 
1618796274.3085132, , , , -0.032725, 0.067689, -0.005779, , , 
1618796274.332656, , , , 0.071198, -0.071918, 0.007045, , , 
1618796274.394956, , , , -0.039165, 0.044774, -0.008046, , , 
1618796274.458969, , , , -0.031673, 0.040098, 0.004357, , , 
1618796274.4826841, , , , -0.002042, 0.052823, -0.010811, , , 
1618796274.542893, , , , 0.006321, 0.034686, -0.010048, , , 
1618796274.604157, , , , 0.042074, -0.025601, -0.001940, , , 
1618796274.666359, , , , 0.029199, -0.004723, -0.015891, , , 
1618796274.7327042, , , , 0.036394, 0.009697, -0.028832, , , 
1618796274.795051, , , , 0.098500, 0.116512, -0.054263, , , 
1618796274.858844, , , , -0.010540, -0.013326, -0.027092, , , 
1618796274.882666, , , , 0.039148, -0.014684, -0.013185, , , 
1618796274.9470081, , , , 0.069926, -0.045541, -0.008786, , , 
1618796275.0134358, , , , 0.047990, 0.028659, -0.016293, , , 
1618796275.083465, , , , 0.027054, -0.024786, -0.011142, , , 
1618796275.150406, , , , 0.008247, -0.008711, -0.008102, , , 
1618796275.216851, , , , 0.079845, -0.051493, -0.003209, , , 
1618796275.283513, , , , 0.052636, -0.030290, -0.004091, , , 
1618796275.3509169, , , , 0.060316, -0.076239, 0.027212, , , 
1618796275.417111, , , , 0.218765, -0.136100, 0.007561, , , 
1618796275.4833999, , , , 0.102583, 0.068830, -0.042299, , , 
1618796275.551415, , , , 0.074947, -0.008434, -0.029757, , , 
1618796275.615989, , , , 0.027378, 0.038517, -0.036921, , , 
1618796275.683393, , , , 0.092510, -0.032323, -0.017522, , , 
1618796275.754519, , , , 0.162446, -0.020379, -0.013211, , , 
1618796275.821797, , , , 0.252474, -0.078889, 0.010333, , , 
1618796275.889425, , , , 0.105299, -0.018352, -0.014871, , , 
1618796275.957242, , , , 0.111417, 0.127210, -0.041559, , , 
1618796276.0239491, , , , 0.111333, -0.070450, -0.003292, , , 
1618796276.090615, , , , 0.036028, -0.017959, -0.014525, , , 
1618796276.1564121, , , , -0.023061, 0.001739, -0.013619, , , 
1618796276.2218962, , , , 0.044321, -0.037440, -0.009407, , , 
1618796276.2910771, , , , -0.002356, 0.025909, -0.011485, , , 
1618796276.356934, , , , 0.013708, -0.016437, 0.000968, , , 
1618796276.4215832, , , , -0.023420, -0.018221, -0.000615, , , 
1618796276.4872189, , , , -0.049063, -0.088562, 0.023974, , , 
1618796276.550424, , , , 0.034943, -0.000330, -0.013790, , , 
1618796276.614273, , , , 0.028695, -0.067635, 0.018445, , , 
1618796276.6833858, , , , -0.048959, -0.004480, -0.003457, , , 
1618796276.746005, , , , -0.032800, 0.027685, -0.011498, , , 
1618796276.8078089, , , , 0.001610, -0.027183, -0.006940, , , 
1618796276.83282, , , , -0.005384, -0.032754, -0.006368, , , 
1618796276.8953, , , , -0.020061, -0.000056, -0.021607, , , 
1618796276.958673, , , , -0.005098, -0.043209, -0.007940, , , 
1618796276.98278, , , , -0.001883, -0.047235, -0.009652, , , 
1618796277.04536, , , , -0.044326, -0.066382, -0.003885, , , 
1618796277.11215, , , , -0.127958, 0.122830, -0.050601, , , 
1618796277.1841269, , , , -0.043348, -0.072600, -0.003018, , , 
1618796277.25591, , , , -0.160757, -0.004184, -0.019640, , , 
1618796277.31862, , , , -0.148775, 0.012244, -0.022240, , , 
1618796277.3834329, , , , -0.060870, -0.055118, 0.003405, , , 
1618796277.447338, , , , -0.090169, 0.000094, -0.007235, , , 
1618796277.510042, , , , -0.027220, -0.066128, 0.003446, , , 
1618796277.532414, , , , -0.083328, -0.073620, 0.012605, , , 
1618796277.600295, , , , -0.037434, -0.031531, -0.003596, , , 
1618796277.666552, , , , -0.103631, -0.122859, 0.032577, , , 
1618796277.732473, , , , 0.027017, -0.152462, 0.011111, , , 
1618796277.796142, , , , -0.130459, -0.010204, -0.032341, , , 
1618796277.8607202, , , , -0.058345, -0.067548, -0.018096, , , 
1618796277.882494, , , , -0.042958, -0.052014, -0.010335, , , 
1618796277.94522, , , , -0.130111, -0.000080, -0.021655, , , 
1618796278.008204, , , , -0.051376, -0.036145, -0.015422, , , 
1618796278.032761, , , , -0.064726, -0.000954, -0.016081, , , 
1618796278.096252, , , , -0.031117, -0.044101, -0.008812, , , 
1618796278.161346, , , , -0.084740, -0.016642, -0.030087, , , 
1618796278.182445, , , , -0.051316, -0.054065, -0.018610, , , 
1618796278.244448, , , , -0.083731, -0.135269, 0.010382, , , 
1618796278.309277, , , , -0.017412, -0.172791, 0.007194, , , 
1618796278.332642, , , , -0.045622, -0.083356, -0.032028, , , 
1618796278.3982968, , , , -0.038191, -0.045392, -0.037093, , , 
1618796278.4615312, , , , -0.011671, -0.046165, -0.048629, , , 
1618796278.5324368, , , , 0.006148, -0.021620, -0.040744, , , 
1618796278.595881, , , , -0.007884, 0.000766, -0.050289, , , 
1618796278.6601992, , , , -0.046313, -0.020187, -0.036007, , , 
1618796278.682497, , , , -0.061188, 0.035181, -0.041008, , , 
1618796278.744623, , , , 0.027165, -0.002729, -0.009152, , , 
1618796278.808229, , , , 0.028942, 0.080269, 0.017679, , , 
1618796278.872128, , , , -0.092583, 0.025598, 0.045765, , , 
1618796278.9398952, , , , 0.069276, -0.076496, 0.023707, , , 
1618796279.009464, , , , 0.035907, -0.048857, 0.003031, , , 
1618796279.077327, , , , 0.035384, -0.005325, -0.020831, , , 
1618796279.142102, , , , 0.029347, -0.075973, -0.009907, , , 
1618796279.2053962, , , , 0.048657, -0.069803, -0.004410, , , 
1618796279.26928, , , , 0.046629, -0.013460, -0.005169, , , 
1618796279.334128, , , , 0.002825, -0.011060, -0.010679, , , 
1618796279.3987222, , , , 0.059267, -0.105157, -0.008941, , , 
1618796279.463355, , , , -0.000479, 0.020511, -0.019934, , , 
1618796279.5325332, , , , 0.049906, 0.025348, -0.028475, , , 
1618796279.596834, , , , 0.083198, 0.062537, -0.029337, , , 
1618796279.66116, , , , 0.101811, 0.042342, -0.018163, , , 
1618796279.682462, , , , 0.125511, 0.012695, -0.013649, , , 
1618796279.745802, , , , 0.107026, 0.077876, -0.033931, , , 
1618796279.809926, , , , 0.151796, -0.052750, -0.010574, , , 
1618796279.832543, , , , 0.148582, -0.045442, -0.007371, , , 
1618796279.897394, , , , 0.158306, 0.085082, -0.048157, , , 
1618796279.961256, , , , 0.111215, 0.083963, -0.069918, , , 
1618796279.98246, , , , 0.137891, 0.146692, -0.073716, , , 
1618796280.049288, , , , 0.131890, -0.065254, -0.014055, , , 
1618796280.1139631, , , , 0.034159, 0.049456, -0.028362, , , 
1618796280.1833692, , , , -0.024877, 0.024247, -0.010196, , , 
1618796280.248347, , , , 0.063780, -0.042981, 0.008708, , , 
1618796280.312582, , , , 0.047266, 0.024630, -0.010287, , , 
1618796280.383374, , , , 0.063987, -0.028069, -0.004499, , , 
1618796280.44788, , , , 0.064972, 0.007783, -0.018367, , , 
1618796280.512645, , , , 0.082018, -0.023141, -0.013724, , , 
1618796280.5833669, , , , 0.047003, 0.134699, -0.042117, , , 
1618796280.649088, , , , 0.098701, -0.065843, -0.001145, , , 
1618796280.713747, , , , -0.018046, 0.025872, -0.008111, , , 
1618796280.783369, , , , -0.028546, 0.016187, -0.002012, , , 
1618796280.848942, , , , 0.043972, -0.037087, 0.001726, , , 
1618796280.9143128, , , , -0.017325, 0.024238, -0.017967, , , 
1618796280.98243, , , , 0.045479, -0.022815, -0.013422, , , 
1618796281.048592, , , , 0.008313, -0.010640, -0.010248, , , 
1618796281.113655, , , , 0.029947, -0.038320, -0.008365, , , 
1618796281.182416, , , , -0.013526, -0.110595, 0.016759, , , 
1618796281.248483, , , , 0.025189, 0.073859, -0.021396, , , 
1618796281.314167, , , , 0.005255, -0.011320, -0.002969, , , 
1618796281.384454, , , , -0.014262, -0.026594, -0.003126, , , 
1618796281.4533281, , , , -0.088361, 0.008782, -0.008231, , , 
1618796281.521877, , , , -0.081801, -0.056090, 0.005240, , , 
1618796281.591358, , , , -0.125852, -0.006560, -0.007188, , , 
1618796281.661027, , , , -0.029349, -0.038355, -0.004506, , , 
1618796281.73276, , , , -0.064158, -0.053780, -0.001081, , , 
1618796281.802267, , , , -0.055574, -0.050057, 0.003014, , , 
1618796281.871889, , , , -0.091948, -0.042845, 0.008376, , , 
1618796281.943505, , , , 0.037246, -0.164369, 0.017231, , , 
1618796282.008959, , , , -0.136037, 0.041625, -0.018129, , , 
1618796282.074696, , , , -0.066538, -0.069021, 0.008869, , , 
1618796282.140915, , , , -0.197485, 0.005739, -0.007220, , , 
1618796282.205793, , , , -0.082531, -0.025923, -0.006805, , , 
1618796282.273931, , , , -0.142880, -0.022550, -0.002475, , , 
1618796282.339302, , , , -0.047723, -0.029295, -0.012943, , , 
1618796282.405089, , , , -0.122426, 0.022036, -0.019373, , , 
1618796282.471472, , , , -0.075332, -0.062169, -0.007245, , , 
1618796282.537586, , , , -0.127870, 0.103622, -0.050852, , , 
1618796282.604495, , , , 0.006543, -0.055478, -0.016260, , , 
1618796282.672961, , , , -0.166788, 0.052966, -0.021953, , , 
1618796282.739554, , , , 0.012001, 0.008087, -0.009582, , , 
1618796282.804071, , , , -0.078495, 0.064545, -0.020634, , , 
1618796282.871766, , , , -0.055297, 0.010851, -0.008372, , , 
1618796282.940726, , , , 0.029293, -0.002460, 0.003271, , , 
1618796283.006496, , , , 0.020410, 0.111143, -0.011316, , , 
1618796283.0735068, , , , 0.002194, 0.023800, -0.004438, , , 
1618796283.1400862, , , , 0.049273, 0.046944, -0.012476, , , 
1618796283.205183, , , , -0.057077, 0.055626, -0.014973, , , 
1618796283.271307, , , , -0.044609, -0.012432, -0.010392, , , 
1618796283.33763, , , , 0.025478, 0.011028, -0.008882, , , 
1618796283.4085732, , , , 0.009666, -0.002924, -0.004097, , , 
1618796283.474183, , , , 0.029643, -0.012476, -0.000978, , , 
1618796283.540765, , , , 0.083165, -0.052139, -0.000762, , , 
1618796283.6064491, , , , 0.037544, 0.030483, -0.019973, , , 
1618796283.672993, , , , 0.095558, 0.012444, -0.024193, , , 
1618796283.742114, , , , 0.134892, 0.152860, -0.070830, , , 
1618796283.8137422, , , , 0.133580, -0.017817, -0.027999, , , 
1618796283.885131, , , , 0.100417, 0.043837, -0.027211, , , 
1618796283.954824, , , , 0.063447, 0.013537, -0.009401, , , 
1618796284.02361, , , , 0.030742, -0.032599, 0.000052, , , 
1618796284.092163, , , , 0.069937, 0.013838, -0.005859, , , 
1618796284.161751, , , , 0.146752, -0.017381, -0.007303, , , 
1618796284.232496, , , , 0.062867, 0.106952, -0.030838, , , 
1618796284.300653, , , , 0.107504, -0.062198, -0.015365, , , 
1618796284.367096, , , , 0.043247, 0.160401, -0.059341, , , 
1618796284.433804, , , , 0.119828, -0.072927, -0.001541, , , 
1618796284.500739, , , , 0.022845, 0.034515, -0.014099, , , 
1618796284.567791, , , , 0.003545, -0.013775, -0.004761, , , 
1618796284.635697, , , , 0.062826, -0.036428, -0.007077, , , 
1618796284.703157, , , , 0.025759, 0.006214, -0.013738, , , 
1618796284.771055, , , , 0.075901, -0.008132, -0.007403, , , 
1618796284.8395948, , , , 0.033756, 0.004075, -0.004919, , , 
1618796284.906608, , , , 0.077695, 0.000015, -0.012214, , , 
1618796284.9734368, , , , -0.003837, 0.076946, -0.040414, , , 
1618796285.04113, , , , 0.104921, -0.090397, 0.000226, , , 
1618796285.108396, , , , -0.035148, 0.020833, -0.019492, , , 
1618796285.175415, , , , -0.029877, -0.029232, -0.000684, , , 
1618796285.242816, , , , 0.005205, -0.036078, -0.002793, , , 
1618796285.309267, , , , -0.029673, -0.005959, -0.006133, , , 
1618796285.376257, , , , -0.004625, -0.055373, 0.001999, , , 
1618796285.4432101, , , , -0.089510, -0.030454, -0.001441, , , 
1618796285.510875, , , , -0.069488, -0.055833, -0.008287, , , 
1618796285.5782099, , , , -0.062051, -0.157194, 0.025155, , , 
1618796285.646569, , , , -0.015824, -0.045763, -0.007479, , , 
1618796285.714028, , , , -0.070658, -0.029749, -0.007807, , , 
1618796285.784272, , , , -0.109495, -0.037927, -0.008107, , , 
1618796285.852131, , , , -0.147067, -0.000626, -0.009461, , , 
1618796285.921298, , , , -0.091330, -0.059149, 0.005343, , , 
1618796285.991259, , , , -0.168735, -0.020514, -0.001866, , , 
1618796286.058851, , , , -0.079906, -0.047652, -0.004099, , , 
1618796286.125722, , , , -0.118394, 0.000187, -0.017189, , , 
1618796286.192718, , , , -0.132954, -0.091598, 0.001425, , , 
1618796286.258946, , , , -0.110042, 0.019109, -0.037633, , , 
1618796286.328335, , , , -0.060598, -0.040265, -0.013354, , , 
1618796286.397684, , , , -0.165885, -0.003005, -0.010109, , , 
1618796286.465653, , , , -0.045315, -0.012814, -0.016101, , , 
1618796286.5350208, , , , -0.071852, -0.022546, 0.000469, , , 
1618796286.6031609, , , , -0.054380, -0.001824, 0.001397, , , 
1618796286.670716, , , , -0.021403, -0.023212, 0.005774, , , 
1618796286.738508, , , , 0.005175, -0.049422, 0.003959, , , 
1618796286.805685, , , , -0.044634, -0.053867, 0.002435, , , 
1618796286.873639, , , , 0.014548, -0.073594, 0.000712, , , 
1618796286.941661, , , , 0.031757, -0.017225, -0.013934, , , 
1618796287.009743, , , , 0.049991, -0.001452, -0.013015, , , 
1618796287.078542, , , , -0.000693, 0.036071, -0.014274, , , 
1618796287.1482592, , , , 0.078596, -0.020757, -0.006477, , , 
1618796287.2171311, , , , 0.073840, 0.020606, -0.017226, , , 
1618796287.285667, , , , 0.061438, 0.014529, -0.014056, , , 
1618796287.3540921, , , , 0.139107, 0.010497, -0.018337, , , 
1618796287.43805, , , , 0.084575, 0.198766, -0.075617, , , 
1618796287.483776, , , , 0.230378, -0.127310, 0.013474, , , 
1618796287.567219, , , , 0.091751, 0.059914, -0.028475, , , 
1618796287.648384, , , , 0.104293, 0.028149, -0.014155, , , 
1618796287.723686, , , , 0.137706, -0.012044, -0.010220, , , 
1618796287.7949538, , , , 0.112629, 0.035887, -0.011260, , , 
1618796287.865864, , , , 0.134272, -0.034316, -0.001706, , , 
1618796287.9377131, , , , 0.084963, 0.029009, -0.011786, , , 
1618796288.008889, , , , 0.074213, -0.139355, 0.038588, , , 
1618796288.078463, , , , 0.122208, -0.008305, -0.011244, , , 
1618796288.151259, , , , 0.025534, 0.014171, -0.017624, , , 
1618796288.222427, , , , -0.007189, -0.001039, -0.005549, , , 
1618796288.294956, , , , -0.001029, 0.010653, -0.007715, , , 
1618796288.3663778, , , , 0.023313, -0.010035, -0.004470, , , 
1618796288.438108, , , , 0.041103, 0.010492, -0.013926, , , 
1618796288.506151, , , , -0.001674, 0.051035, -0.018087, , , 
1618796288.574831, , , , 0.065284, 0.019878, -0.026505, , , 
1618796288.6442652, , , , -0.013734, 0.099118, -0.044705, , , 
1618796288.712554, , , , 0.083468, -0.098822, 0.003102, , , 
1618796288.782442, , , , -0.039305, -0.001362, -0.009355, , , 
1618796288.8521361, , , , -0.043968, -0.023963, -0.001190, , , 
1618796288.9207, , , , 0.019706, -0.035302, -0.002369, , , 
1618796288.989478, , , , -0.018436, 0.005252, -0.008083, , , 
1618796289.058979, , , , 0.042406, -0.033365, -0.004055, , , 
1618796289.1269212, , , , -0.018764, -0.013075, -0.008211, , , 
1618796289.196532, , , , 0.017443, -0.004543, -0.016067, , , 
1618796289.266165, , , , -0.046934, 0.098240, -0.044096, , , 
1618796289.3361158, , , , 0.031082, -0.077149, 0.000518, , , 
1618796289.405968, , , , -0.103519, -0.000803, -0.014373, , , 
1618796289.475246, , , , -0.127431, -0.010901, -0.018493, , , 
1618796289.544812, , , , -0.083140, -0.040533, -0.009443, , , 
1618796289.61427, , , , -0.107920, -0.007847, -0.012943, , , 
1618796289.687274, , , , -0.060715, -0.063482, -0.006884, , , 
1618796289.756606, , , , -0.149895, -0.007548, -0.025419, , , 
1618796289.82545, , , , -0.050294, -0.061645, -0.026353, , , 
1618796289.8959708, , , , -0.156888, 0.107951, -0.057607, , , 
1618796289.965677, , , , 0.006013, -0.120006, 0.000956, , , 
1618796290.036293, , , , -0.154030, 0.017519, -0.010709, , , 
1618796290.105938, , , , -0.089294, 0.013169, -0.021017, , , 
1618796290.176027, , , , -0.123348, -0.024452, -0.003842, , , 
1618796290.245435, , , , -0.064821, 0.013670, -0.015101, , , 
1618796290.315631, , , , -0.021667, -0.073443, 0.007874, , , 
1618796290.386564, , , , -0.088644, -0.058363, 0.002782, , , 
1618796290.45943, , , , -0.124016, -0.036389, -0.000258, , , 
1618796290.52909, , , , 0.003722, -0.095321, 0.010056, , , 
1618796290.6006851, , , , -0.157533, 0.027629, -0.008464, , , 
1618796290.670278, , , , 0.015032, -0.013452, 0.000352, , , 
1618796290.7398372, , , , 0.055269, -0.025059, -0.012766, , , 
1618796290.8102732, , , , -0.041489, -0.016056, -0.010845, , , 
1618796290.880021, , , , -0.036316, -0.026936, -0.000986, , , 
1618796290.949791, , , , -0.016422, -0.039460, 0.001803, , , 
1618796291.019443, , , , -0.086317, -0.073327, 0.008966, , , 
1618796291.089942, , , , -0.049829, -0.065689, 0.009279, , , 
1618796291.159997, , , , 0.047589, -0.037337, 0.000274, , , 
1618796291.228935, , , , -0.006991, 0.003705, -0.006509, , , 
1618796291.299694, , , , -0.010572, 0.026706, -0.000855, , , 
1618796291.3703809, , , , 0.042128, -0.004120, 0.002618, , , 
1618796291.440201, , , , 0.091041, -0.021651, 0.002881, , , 
1618796291.510808, , , , 0.062301, 0.038950, -0.013892, , , 
1618796291.580677, , , , 0.107680, 0.013884, -0.016381, , , 
1618796291.6516109, , , , 0.138650, 0.193574, -0.067043, , , 
1618796291.722311, , , , 0.165167, 0.014078, -0.014930, , , 
1618796291.793616, , , , 0.093989, 0.053061, -0.010283, , , 
1618796291.863865, , , , 0.023152, 0.057109, -0.017585, , , 
1618796291.9337878, , , , 0.123817, -0.023766, 0.002925, , , 
1618796292.0035748, , , , 0.036534, 0.032752, 0.004647, , , 
1618796292.074809, , , , 0.088975, 0.011412, 0.000406, , , 
1618796292.144995, , , , 0.128398, 0.077980, -0.024258, , , 
1618796292.21486, , , , 0.064974, 0.075623, -0.024477, , , 
1618796292.287415, , , , 0.177252, -0.078499, 0.012159, , , 
1618796292.3578901, , , , 0.018766, 0.049800, -0.009983, , , 
1618796292.42747, , , , -0.030127, 0.037272, 0.004681, , , 
1618796292.498713, , , , -0.015304, 0.074029, -0.015510, , , 
1618796292.568851, , , , 0.089861, 0.069545, -0.019510, , , 
1618796292.6393008, , , , 0.067076, 0.043513, -0.009632, , , 
1618796292.709624, , , , 0.061439, 0.032032, 0.000133, , , 
1618796292.780072, , , , 0.074653, -0.111014, 0.033352, , , 
1618796292.851758, , , , 0.078034, 0.024144, -0.024201, , , 
1618796292.921733, , , , 0.031151, -0.051052, -0.013660, , , 
1618796292.992203, , , , -0.030696, -0.067054, -0.012020, , , 
1618796293.061101, , , , -0.018466, -0.055580, -0.009947, , , 
1618796293.131936, , , , -0.023664, -0.059324, 0.000635, , , 
1618796293.203562, , , , -0.031039, -0.006450, -0.000641, , , 
1618796293.276396, , , , -0.027716, 0.001014, -0.001536, , , 
1618796293.3462791, , , , 0.018010, -0.009239, -0.006808, , , 
1618796293.420718, , , , -0.037248, 0.083828, -0.034381, , , 
1618796293.492131, , , , 0.091240, -0.113703, 0.006988, , , 
1618796293.562405, , , , -0.053254, 0.000795, -0.017075, , , 
1618796293.634015, , , , -0.049951, -0.017139, -0.013295, , , 
1618796293.706626, , , , -0.015684, -0.040928, -0.006871, , , 
1618796293.77742, , , , -0.128298, 0.003683, -0.011759, , , 
1618796293.8492088, , , , -0.015999, -0.058052, -0.001482, , , 
1618796293.92239, , , , -0.123346, -0.013707, -0.012646, , , 
1618796293.995408, , , , -0.026046, -0.068729, -0.013003, , , 
1618796294.0673242, , , , -0.126676, 0.158657, -0.062635, , , 
1618796294.139286, , , , -0.049256, -0.047776, -0.010025, , , 
1618796294.210957, , , , -0.124203, -0.033166, -0.019153, , , 
1618796294.282531, , , , -0.117365, -0.018269, -0.019157, , , 
1618796294.355367, , , , -0.126781, -0.059495, -0.007924, , , 
1618796294.4259849, , , , -0.104715, -0.003480, -0.019951, , , 
1618796294.4971871, , , , -0.097484, -0.063599, -0.002922, , , 
1618796294.569289, , , , -0.107898, -0.053254, -0.008293, , , 
1618796294.641654, , , , -0.106959, -0.007251, -0.017066, , , 
1618796294.712518, , , , 0.022773, -0.123234, 0.010846, , , 
1618796294.7840629, , , , -0.203981, 0.005080, -0.017556, , , 
1618796294.856348, , , , -0.021441, -0.073946, -0.008411, , , 
1618796294.927314, , , , -0.084482, -0.026495, -0.016466, , , 
1618796294.99773, , , , -0.023973, -0.036070, -0.001814, , , 
1618796295.070294, , , , -0.019970, -0.052605, 0.005275, , , 
1618796295.1419082, , , , -0.009516, -0.024803, 0.000893, , , 
1618796295.213687, , , , -0.028942, 0.024103, -0.004050, , , 
1618796295.286336, , , , 0.036335, -0.011990, -0.013051, , , 
1618796295.358533, , , , -0.039711, 0.041886, -0.005178, , , 
1618796295.429461, , , , 0.022395, 0.023985, 0.010497, , , 
1618796295.502207, , , , 0.012451, 0.029573, -0.001152, , , 
1618796295.5740108, , , , -0.015531, 0.010953, -0.004694, , , 
1618796295.647372, , , , 0.089963, -0.058973, -0.003628, , , 
1618796295.718905, , , , 0.053389, -0.040512, -0.011430, , , 
1618796295.7921848, , , , 0.003009, -0.054679, 0.006131, , , 
1618796295.862969, , , , 0.161912, -0.079139, 0.012613, , , 
1618796295.9367619, , , , 0.052239, 0.086708, -0.020852, , , 
1618796296.009286, , , , 0.212013, -0.032624, 0.017040, , , 
1618796296.080092, , , , -0.041630, 0.105063, -0.025576, , , 
1618796296.152405, , , , 0.218495, -0.024176, -0.008986, , , 
1618796296.223658, , , , 0.098821, 0.022016, -0.014386, , , 
1618796296.29669, , , , 0.129519, -0.052564, -0.005906, , , 
1618796296.371115, , , , 0.068042, -0.100926, 0.019288, , , 
1618796296.4445539, , , , 0.284503, -0.036826, -0.010596, , , 
1618796296.515831, , , , 0.186892, 0.035698, -0.037739, , , 
1618796296.5887818, , , , 0.088197, 0.008441, -0.016842, , , 
1618796296.6610599, , , , 0.060433, -0.014503, -0.003240, , , 
1618796296.735462, , , , 0.093718, -0.029183, 0.002144, , , 
1618796296.810688, , , , 0.063423, 0.011093, -0.015308, , , 
1618796296.885905, , , , 0.038529, 0.015889, -0.015179, , , 
1618796296.9640021, , , , 0.032335, 0.019341, -0.018120, , , 
1618796297.038136, , , , 0.097239, -0.075371, -0.005213, , , 
1618796297.1109629, , , , -0.029785, 0.010624, -0.019173, , , 
1618796297.185077, , , , -0.000483, -0.044899, -0.007133, , , 
1618796297.2590098, , , , 0.036472, -0.025716, -0.003786, , , 
1618796297.3309731, , , , -0.030624, 0.009982, -0.006251, , , 
1618796297.404372, , , , 0.028991, -0.027661, -0.000354, , , 
1618796297.4764419, , , , -0.017316, -0.014628, -0.008402, , , 
1618796297.549662, , , , -0.006624, -0.125205, 0.028847, , , 
1618796297.622802, , , , 0.020861, -0.014901, 0.000137, , , 
1618796297.696356, , , , -0.024113, -0.000863, 0.001561, , , 
1618796297.7688808, , , , 0.014445, -0.053019, 0.007108, , , 
1618796297.842031, , , , -0.072191, -0.041638, 0.003504, , , 
1618796297.9142919, , , , -0.057048, -0.066642, 0.008926, , , 
1618796297.9877682, , , , -0.116853, -0.010307, -0.008760, , , 
1618796298.060495, , , , -0.096447, -0.035327, -0.006334, , , 
1618796298.133479, , , , -0.124864, -0.004720, -0.009956, , , 
1618796298.2059078, , , , -0.067688, -0.141188, 0.018989, , , 
1618796298.27848, , , , -0.057715, 0.059179, -0.033034, , , 
1618796298.351634, , , , -0.076068, -0.002477, -0.024992, , , 
1618796298.428155, , , , -0.104150, -0.063880, -0.002666, , , 
1618796298.50262, , , , -0.154764, -0.013070, -0.005625, , , 
1618796298.57598, , , , -0.134050, -0.065013, 0.002213, , , 
1618796298.64856, , , , -0.132710, -0.000612, -0.011357, , , 
1618796298.722759, , , , -0.057449, -0.064415, 0.003813, , , 
1618796298.797893, , , , -0.101493, -0.034332, -0.002782, , , 
1618796298.87147, , , , -0.130240, -0.064963, 0.011121, , , 
1618796298.944716, , , , 0.013178, -0.098753, 0.012550, , , 
1618796299.017787, , , , -0.171733, -0.010755, 0.000255, , , 
1618796299.0922, , , , -0.017838, -0.019582, 0.005010, , , 
1618796299.165772, , , , -0.117853, 0.017038, -0.005297, , , 
1618796299.24197, , , , -0.030444, -0.010496, 0.001765, , , 
1618796299.316016, , , , -0.018109, -0.053279, 0.005812, , , 
1618796299.390355, , , , -0.070246, -0.018350, -0.002221, , , 
1618796299.462637, , , , -0.048332, -0.041739, 0.003633, , , 
1618796299.537321, , , , 0.005625, -0.044035, -0.005538, , , 
1618796299.611878, , , , -0.051878, -0.021610, 0.003913, , , 
1618796299.685575, , , , 0.084418, -0.021245, -0.007534, , , 
1618796299.759881, , , , -0.075907, 0.032026, -0.013888, , , 
1618796299.833174, , , , 0.098598, -0.022897, -0.007934, , , 
1618796299.909614, , , , 0.081193, -0.008690, -0.018005, , , 
1618796299.985219, , , , 0.082947, 0.025185, -0.027274, , , 
1618796300.059149, , , , 0.142973, -0.082323, -0.004151, , , 
1618796300.133493, , , , 0.154551, 0.032495, -0.030134, , , 
1618796300.208143, , , , 0.150433, 0.045893, -0.015751, , , 
1618796300.281695, , , , 0.152705, 0.002084, -0.006281, , , 
1618796300.356127, , , , 0.025505, 0.065354, -0.026213, , , 
1618796300.429421, , , , 0.207447, -0.049613, 0.010926, , , 
1618796300.503628, , , , 0.101813, 0.089360, -0.011625, , , 
1618796300.577709, , , , 0.090807, -0.016486, 0.003423, , , 
1618796300.653823, , , , 0.124605, 0.068616, -0.017448, , , 
1618796300.727571, , , , 0.076271, 0.144545, -0.039706, , , 
1618796300.80199, , , , 0.135760, -0.046131, -0.010555, , , 
1618796300.876327, , , , 0.032067, 0.055449, -0.023982, , , 
1618796300.950571, , , , -0.004619, 0.039063, -0.012049, , , 
1618796301.025261, , , , 0.064659, 0.001632, -0.005492, , , 
1618796301.09993, , , , 0.030962, 0.010054, -0.008196, , , 
1618796301.173249, , , , 0.055510, -0.040831, -0.005092, , , 
1618796301.248321, , , , 0.038419, -0.008171, -0.014483, , , 
1618796301.323316, , , , -0.027395, 0.052929, -0.031215, , , 
1618796301.398378, , , , 0.085620, -0.075941, 0.002236, , , 
1618796301.472649, , , , -0.010934, 0.016953, -0.013627, , , 
1618796301.546962, , , , -0.058586, -0.001494, -0.012811, , , 
1618796301.620868, , , , 0.019487, -0.030932, -0.009716, , , 
1618796301.696, , , , -0.119125, -0.013777, -0.006297, , , 
1618796301.769758, , , , -0.063546, -0.051470, -0.003081, , , 
1618796301.843735, , , , -0.079747, -0.061254, -0.004649, , , 
1618796301.918188, , , , -0.040765, -0.161607, 0.016763, , , 
1618796301.992058, , , , -0.039928, -0.033408, -0.013140, , , 
1618796302.0674372, , , , -0.102283, 0.012589, -0.017826, , , 
1618796302.143095, , , , -0.121820, -0.051090, 0.006033, , , 
1618796302.216259, , , , -0.123014, -0.025665, -0.001207, , , 
1618796302.291778, , , , -0.087645, -0.046533, 0.003397, , , 
1618796302.367722, , , , -0.146096, -0.051543, 0.005949, , , 
1618796302.442544, , , , -0.088631, -0.044509, -0.005079, , , 
1618796302.51672, , , , -0.131008, -0.051906, 0.002568, , , 
1618796302.5916839, , , , -0.126712, -0.078007, 0.020536, , , 
1618796302.665966, , , , 0.035507, -0.116742, 0.018806, , , 
1618796302.7400799, , , , -0.207645, 0.007277, -0.013953, , , 
1618796302.813905, , , , -0.027286, 0.006204, 0.006080, , , 
1618796302.888328, , , , -0.053098, -0.021007, -0.004077, , , 
1618796302.963952, , , , -0.023497, -0.027069, -0.009790, , , 
1618796303.038796, , , , -0.001548, -0.074572, -0.000943, , , 
1618796303.112813, , , , -0.019380, -0.047279, -0.012508, , , 
1618796303.188545, , , , -0.056888, -0.017494, -0.009613, , , 
1618796303.26378, , , , -0.013297, -0.086044, 0.009404, , , 
1618796303.338793, , , , 0.013194, -0.008142, -0.006073, , , 
1618796303.41836, , , , -0.026768, 0.047942, -0.005777, , , 
1618796303.493104, , , , 0.064588, -0.036857, 0.002472, , , 
1618796303.567693, , , , 0.049989, 0.018140, -0.011203, , , 
1618796303.642655, , , , 0.103345, -0.009719, -0.010837, , , 
1618796303.718055, , , , 0.111332, -0.020123, -0.009998, , , 
1618796303.801686, , , , 0.070475, 0.093985, -0.024833, , , 
1618796303.883459, , , , 0.209442, -0.047334, 0.002279, , , 
1618796303.973469, , , , 0.152976, 0.075631, -0.022722, , , 
1618796304.7073731, , , , 0.061179, -0.019653, -0.005085, , , 
1618796305.1016002, , , , -0.061278, -0.017262, -0.006330, , , 
1618796305.528858, , , , -0.053262, -0.088782, 0.005374, , , 
1618796306.862387, , , , 0.146940, -0.031821, 0.004076, , , 
1618796307.5249171, , , , 0.095153, 0.034459, -0.019788, , , 
1618796308.1192188, , , , 0.033450, -0.026922, -0.017772, , , 
1618796308.6911778, , , , -0.042862, -0.077616, 0.008749, , , 
1618796309.2402902, , , , -0.228679, -0.010905, -0.019365, , , 
1618796309.76068, , , , -0.124901, 0.053857, -0.028857, , , 
1618796310.280184, , , , 0.001639, -0.060111, 0.014337, , , 
1618796310.7794971, , , , 0.115087, -0.038673, 0.011368, , , 
1618796311.299686, , , , 0.098336, -0.012420, 0.041943, , , 
1618796311.793549, , , , -0.018179, 0.078255, 0.033995, , , 
1618796312.3117728, , , , 0.019364, -0.139695, -0.021957, , , 
1618796312.785707, , , , 0.014630, -0.033525, -0.032744, , , 
1618796313.3033981, , , , -0.025081, -0.115535, -0.016557, , , 
1618796313.816277, , , , 0.005967, -0.185200, -0.034128, , , 
1618796314.464253, , , , 0.128621, 0.178065, 0.133962, , , 
1618796314.938284, , , , 0.014372, -0.086739, -0.006169, , , 
1618796315.534929, , , , 0.006422, -0.056567, 0.005589, , , 
1618796316.0616322, , , , 0.049855, -0.086387, -0.009283, , , 
1618796316.6060638, , , , 0.013820, -0.014462, -0.015270, , , 
1618796317.083272, , , , 0.078564, -0.035460, -0.005778, , , 
1618796317.7922192, , , , -0.060122, -0.017787, -0.009787, , , 
1618796318.268354, , , , -0.004767, -0.049869, -0.022107, , , 
1618796318.829859, , , , -0.018432, -0.055113, -0.006458, , , 
1618796319.302507, , , , -0.020355, 0.008604, -0.011732, , , 
1618796319.834914, , , , -0.033472, -0.063404, -0.011495, , , 
1618796320.316773, , , , -0.566572, 0.032085, 0.003419, , , 
1618796320.8413649, , , , -0.186695, 0.369391, -0.143144, , , 
1618796321.3141289, , , , 0.022627, 0.011035, -0.008466, , , 
1618796322.12416, , , , 0.042743, 0.091737, 0.027704, , , 
1618796322.2303681, , , , 0.051323, -0.071325, -0.002472, , , 
1618796322.328423, , , , 0.016244, -0.043969, 0.055444, , , 
1618796322.4213061, , , , 0.056340, 0.050936, 0.065322, , , 
1618796322.5080929, , , , 0.024221, -0.014262, 0.035306, , , 
1618796322.598366, , , , -0.005652, -0.014418, -0.028330, , , 
1618796322.6803908, , , , 0.033273, -0.010819, -0.002849, , , 
1618796322.7631412, , , , 0.008391, -0.017540, 0.003520, , , 
1618796322.848772, , , , -0.015672, -0.020006, -0.018617, , , 