SamplingTime, AccelerationX, AccelerationY, AccelerationZ, GyroX, GyroY, GyroZ, MagneticFieldX, MagneticFieldY, MagneticFieldZ
1618796453.338327, , , , -0.021928, 0.031233, -0.008425, , , 
1618796453.418134, , , , 0.013578, -0.021265, -0.007566, , , 
1618796453.49054, , , , 0.038757, -0.039077, 0.005284, , , 
1618796453.559228, , , , -0.002203, -0.000359, -0.012530, , , 
1618796453.630667, , , , -0.006485, -0.053532, -0.003829, , , 
1618796453.692237, , , , -0.041046, 0.093096, -0.038322, , , 
1618796453.729014, , , , -0.053295, 0.142334, -0.043867, , , 
1618796453.7860088, , , , -0.004938, 0.028719, -0.030391, , , 
1618796453.829164, , , , -0.067465, 0.176848, -0.046083, , , 
1618796453.8971028, , , , -0.172882, 0.024529, -0.139054, , , 
1618796453.979144, , , , -0.007589, 0.174074, -0.239640, , , 
1618796454.047642, , , , -0.145237, 0.001601, -0.193618, , , 
1618796454.1290731, , , , -0.185747, 0.002611, -0.168224, , , 
1618796454.19788, , , , -0.065308, 0.041600, -0.012262, , , 
1618796454.278541, , , , -0.172784, 0.127919, 0.025601, , , 
1618796454.3476439, , , , -0.138868, 0.067618, 0.081487, , , 
1618796454.428716, , , , -0.128416, -0.024057, 0.052986, , , 
1618796454.497011, , , , -0.039936, -0.000711, 0.017377, , , 
1618796454.578265, , , , -0.087964, -0.066850, 0.008845, , , 
1618796454.6470919, , , , -0.092991, -0.029438, 0.007977, , , 
1618796454.7289782, , , , 0.007316, -0.019989, 0.010553, , , 
1618796454.7981439, , , , 0.038456, -0.008408, 0.015900, , , 
1618796454.828432, , , , 0.021949, 0.006615, 0.025266, , , 
1618796454.893935, , , , 0.102135, -0.020279, 0.012775, , , 
1618796454.9288769, , , , -0.010967, 0.003138, -0.008567, , , 
1618796454.989688, , , , 0.075350, -0.004924, -0.007893, , , 
1618796455.028283, , , , 0.111271, -0.080258, 0.027122, , , 
1618796455.089175, , , , 0.094990, -0.052675, -0.004346, , , 
1618796455.129127, , , , 0.096405, -0.039742, -0.020376, , , 
1618796455.195637, , , , -0.052481, -0.117008, -0.027316, , , 
1618796455.228215, , , , 0.064335, -0.031489, -0.066918, , , 
1618796455.2971559, , , , 0.025756, -0.066882, -0.007763, , , 
1618796455.37845, , , , 0.061386, -0.068638, -0.002906, , , 
1618796455.447571, , , , -0.064779, 0.039489, -0.042590, , , 
1618796455.528938, , , , 0.032847, -0.054628, 0.006687, , , 
1618796455.597342, , , , 0.102373, -0.045168, -0.035231, , , 
1618796455.628252, , , , 0.318597, -0.022379, -0.019536, , , 
1618796455.687557, , , , 0.078370, -0.013961, -0.033259, , , 
1618796455.747546, , , , 0.215620, 0.040605, -0.022445, , , 
1618796455.778347, , , , 0.233064, -0.057031, -0.003075, , , 
1618796455.8397322, , , , 0.053902, 0.048754, -0.034346, , , 
1618796455.878697, , , , 0.114516, 0.054667, -0.023496, , , 
1618796455.947166, , , , 0.051625, -0.024107, -0.030151, , , 
1618796456.028893, , , , -0.016247, -0.014254, -0.045914, , , 
1618796456.098318, , , , 0.106594, 0.010713, -0.060919, , , 
1618796456.1782131, , , , 0.174830, -0.116609, -0.036642, , , 
1618796456.2468371, , , , 0.100487, -0.072788, -0.058297, , , 
1618796456.278362, , , , 0.098156, -0.057959, -0.037282, , , 
1618796456.337315, , , , 0.121409, -0.072098, -0.045881, , , 
1618796456.39822, , , , 0.074163, 0.025965, -0.046185, , , 
1618796456.428362, , , , 0.066394, -0.194498, 0.002289, , , 
1618796456.488311, , , , 0.077633, 0.000694, -0.059196, , , 
1618796456.54917, , , , 0.210686, -0.025988, 0.028449, , , 
1618796456.578247, , , , 0.036410, -0.003458, -0.051007, , , 
1618796456.637475, , , , 0.174004, -0.083008, 0.014919, , , 
1618796456.698813, , , , -0.064537, -0.007078, -0.048811, , , 
1618796456.728301, , , , 0.053221, -0.007463, -0.025556, , , 
1618796456.789071, , , , 0.045493, -0.014199, -0.014008, , , 
1618796456.849663, , , , 0.050956, -0.020455, 0.028349, , , 
1618796456.878197, , , , 0.054951, 0.014792, 0.013413, , , 
1618796456.939645, , , , -0.021326, -0.000814, 0.043584, , , 
1618796457.001295, , , , -0.085102, 0.155065, 0.008548, , , 
1618796457.078618, , , , -0.177911, 0.242489, -0.029651, , , 
1618796457.139739, , , , -0.063332, 0.116715, -0.033112, , , 
1618796457.20246, , , , -0.141129, 0.097168, -0.041546, , , 
1618796457.278121, , , , -0.096943, 0.016801, 0.012852, , , 
1618796457.3398519, , , , -0.079693, 0.019019, 0.003526, , , 
1618796457.402957, , , , -0.098360, 0.000247, -0.002303, , , 
1618796457.478127, , , , -0.099061, 0.020642, -0.011623, , , 
1618796457.54, , , , -0.046120, 0.052800, 0.001803, , , 
1618796457.6014981, , , , -0.040401, -0.008662, -0.001666, , , 
1618796457.678028, , , , -0.101983, -0.022196, -0.001234, , , 
1618796457.741755, , , , -0.032114, -0.001420, -0.007148, , , 
1618796457.7779121, , , , -0.091592, -0.013729, 0.003446, , , 
1618796457.846558, , , , -0.092702, 0.012542, -0.000426, , , 
1618796457.9281769, , , , -0.086099, -0.004458, -0.000698, , , 
1618796458.000342, , , , -0.138689, -0.071488, 0.010248, , , 
1618796458.0781832, , , , -0.080086, -0.076905, 0.006577, , , 
1618796458.14925, , , , -0.130218, -0.081040, 0.001264, , , 
1618796458.228797, , , , -0.099106, -0.102388, -0.005221, , , 
1618796458.3001041, , , , -0.107428, -0.037591, -0.008384, , , 
1618796458.378782, , , , -0.106686, -0.055347, -0.012912, , , 
1618796458.451717, , , , -0.059606, -0.093297, -0.003510, , , 
1618796458.528755, , , , -0.010902, -0.156863, 0.003372, , , 
1618796458.597283, , , , 0.048874, 0.021104, 0.010437, , , 
1618796458.678416, , , , 0.009334, 0.008591, 0.017782, , , 
1618796458.7505178, , , , -0.029409, -0.003274, 0.019423, , , 
1618796458.828134, , , , -0.048966, 0.078096, -0.018458, , , 
1618796458.897509, , , , 0.032615, 0.075377, 0.017516, , , 
1618796458.927887, , , , -0.051374, -0.054948, 0.021257, , , 
1618796458.988478, , , , -0.001541, 0.051687, 0.004781, , , 
1618796459.053026, , , , -0.031670, 0.055462, 0.014133, , , 
1618796459.1287, , , , -0.017995, 0.029537, 0.018942, , , 
1618796459.1915379, , , , -0.007775, -0.002840, 0.008283, , , 
1618796459.228699, , , , 0.007364, -0.013177, 0.001046, , , 
1618796459.297186, , , , 0.016443, -0.020411, -0.002304, , , 
1618796459.377676, , , , 0.047742, -0.082275, 0.003921, , , 
1618796459.447434, , , , 0.058519, -0.000558, -0.013482, , , 
1618796459.477921, , , , 0.184400, 0.071312, 0.002431, , , 
1618796459.5402908, , , , 0.185844, 0.031215, -0.007539, , , 
1618796459.603479, , , , 0.041417, -0.046488, -0.014435, , , 
1618796459.678267, , , , 0.033737, -0.032692, -0.012071, , , 
1618796459.742445, , , , -0.003401, -0.031345, -0.016687, , , 
1618796459.77816, , , , 0.033033, -0.062630, -0.018773, , , 
1618796459.846324, , , , 0.037420, -0.016557, -0.032072, , , 
1618796459.9278579, , , , -0.025408, -0.058909, -0.018591, , , 
1618796460.00005, , , , 0.017591, -0.082643, 0.006560, , , 
1618796460.0777202, , , , 0.143016, -0.001616, -0.004864, , , 
1618796460.150127, , , , 0.009828, -0.027865, -0.017935, , , 
1618796460.228612, , , , 0.075773, 0.006999, -0.023820, , , 
1618796460.302689, , , , 0.502550, -0.067790, -0.051738, , , 
1618796460.378096, , , , 0.075202, 0.049399, -0.044309, , , 
1618796460.4479342, , , , 0.131094, -0.043741, -0.006034, , , 
1618796460.528131, , , , 0.042589, -0.076953, -0.007791, , , 
1618796460.598911, , , , 0.041695, -0.109907, 0.009017, , , 
1618796460.6276, , , , -0.005624, 0.022907, -0.028443, , , 
1618796460.6907902, , , , 0.129883, -0.030016, -0.020865, , , 
1618796460.754801, , , , -0.004371, 0.009054, -0.020130, , , 
1618796460.828599, , , , -0.024490, -0.017618, -0.012437, , , 
1618796460.895977, , , , -0.007308, -0.019893, -0.006206, , , 
1618796460.928012, , , , 0.018049, -0.020770, -0.004009, , , 
1618796460.991791, , , , -0.033508, -0.020422, -0.007884, , , 
1618796461.0563478, , , , -0.001512, -0.015078, -0.006625, , , 
1618796461.12845, , , , -0.067359, -0.028799, -0.002550, , , 
1618796461.1931891, , , , -0.083363, -0.039348, -0.010152, , , 
1618796461.227731, , , , -0.083494, -0.076680, 0.020654, , , 
1618796461.299714, , , , 0.068797, -0.027762, -0.004703, , , 
1618796461.377902, , , , -0.110511, -0.032841, -0.002084, , , 
1618796461.4475908, , , , -0.318940, -0.019068, 0.027541, , , 
1618796461.477725, , , , -0.427490, -0.002712, -0.001144, , , 
1618796461.539566, , , , -0.099858, -0.057723, -0.010118, , , 
1618796461.602741, , , , -0.128330, -0.031245, -0.018784, , , 
1618796461.6775022, , , , -0.084102, -0.015201, -0.006366, , , 
1618796461.741765, , , , -0.144569, -0.042549, -0.016479, , , 
1618796461.7779741, , , , -0.167659, 0.019753, -0.010708, , , 
1618796461.840149, , , , -0.107426, -0.021175, -0.009383, , , 
1618796461.903198, , , , -0.012226, 0.056409, -0.034063, , , 
1618796461.978574, , , , -0.088113, -0.006252, -0.016587, , , 
1618796462.042033, , , , -0.073069, 0.012701, -0.015835, , , 
1618796462.07795, , , , -0.085951, -0.031309, -0.007793, , , 
1618796462.146534, , , , -0.051998, -0.014835, -0.011265, , , 
1618796462.177535, , , , -0.048576, -0.024359, -0.017541, , , 
1618796462.24014, , , , -0.075647, -0.014278, -0.021151, , , 
1618796462.3076, , , , -0.051852, -0.030764, -0.005585, , , 
1618796462.381413, , , , -0.038123, -0.018868, -0.002210, , , 
1618796462.45246, , , , -0.023430, -0.010748, -0.003578, , , 
1618796462.528424, , , , 0.017477, -0.043366, -0.000282, , , 
1618796462.5919452, , , , -0.018447, -0.025731, 0.002801, , , 
1618796462.62835, , , , -0.018270, -0.018663, 0.000623, , , 
1618796462.698035, , , , -0.073579, -0.021409, 0.005871, , , 
1618796462.778477, , , , -0.033318, -0.035242, 0.000057, , , 
1618796462.84253, , , , -0.037948, -0.044986, 0.000386, , , 
1618796462.878294, , , , -0.025309, -0.027108, -0.007448, , , 
1618796462.9470701, , , , -0.035725, -0.044636, -0.011081, , , 
1618796463.027885, , , , -0.001349, -0.049402, -0.013372, , , 
1618796463.092492, , , , 0.033305, 0.037040, -0.017619, , , 
1618796463.157957, , , , -0.009971, 0.010881, -0.009815, , , 
1618796463.228703, , , , 0.033115, -0.010443, -0.008106, , , 
1618796463.293199, , , , 0.025335, 0.023526, -0.028038, , , 
1618796463.328203, , , , 0.018995, -0.008015, -0.021230, , , 
1618796463.401667, , , , 0.085994, 0.018089, -0.019717, , , 
1618796463.477518, , , , 0.150976, 0.026265, -0.007816, , , 
1618796463.5447931, , , , 0.102424, 0.021742, -0.015375, , , 
1618796463.578052, , , , 0.159277, 0.002300, -0.008895, , , 
1618796463.647944, , , , 0.046476, -0.076195, 0.010015, , , 
1618796463.7278771, , , , 0.122963, -0.057199, 0.001301, , , 
1618796463.791513, , , , 0.097233, -0.050672, -0.004094, , , 
1618796463.8556619, , , , 0.088680, 0.005792, -0.014427, , , 
1618796463.928237, , , , 0.007894, -0.019612, -0.037756, , , 
1618796463.999353, , , , 0.076333, -0.055577, -0.020963, , , 
1618796464.077911, , , , 0.102173, -0.006175, -0.034559, , , 
1618796464.149534, , , , 0.061138, 0.005625, -0.020743, , , 
1618796464.227519, , , , 0.129248, -0.005230, -0.013311, , , 
1618796464.2912478, , , , 0.087738, 0.088341, -0.057536, , , 
1618796464.355813, , , , 0.162498, -0.044025, -0.017377, , , 
1618796464.4283829, , , , 0.103005, -0.012582, -0.019964, , , 
1618796464.5005898, , , , 0.070577, 0.028276, -0.020403, , , 
1618796464.577632, , , , 0.098937, -0.005516, -0.014899, , , 
1618796464.651443, , , , 0.057346, 0.028206, -0.012795, , , 
1618796464.727593, , , , 0.035806, 0.020753, -0.004979, , , 
1618796464.79783, , , , 0.030826, -0.008877, -0.014754, , , 
1618796464.8274698, , , , 0.028565, 0.025665, -0.013024, , , 
1618796464.890688, , , , -0.062633, 0.029637, -0.033727, , , 
1618796464.955823, , , , 0.075705, -0.096327, -0.000367, , , 
1618796465.028157, , , , -0.063858, -0.006726, -0.018617, , , 
1618796465.09238, , , , -0.022410, -0.048884, -0.004110, , , 
1618796465.12813, , , , -0.064086, 0.014486, -0.015298, , , 
1618796465.1914082, , , , 0.021643, -0.031281, -0.008413, , , 
1618796465.256474, , , , -0.033915, -0.006605, -0.008792, , , 
1618796465.327851, , , , 0.051273, -0.005768, -0.013787, , , 
1618796465.392222, , , , 0.045967, -0.036745, -0.019006, , , 
1618796465.4572082, , , , 0.039687, -0.046984, -0.020610, , , 
1618796465.527862, , , , -0.024370, 0.011050, -0.035477, , , 
1618796465.5978398, , , , 0.091396, -0.090329, 0.002185, , , 
1618796465.677483, , , , -0.059706, 0.002716, -0.017210, , , 
1618796465.7523708, , , , -0.097630, 0.012252, -0.037653, , , 
1618796465.828224, , , , -0.070219, 0.004181, -0.035263, , , 
1618796465.894428, , , , -0.119191, -0.045583, -0.021861, , , 
1618796465.9278579, , , , 0.029967, -0.076163, -0.026423, , , 
1618796465.992412, , , , -0.099256, -0.036367, -0.019467, , , 
1618796466.0603151, , , , -0.067735, -0.005006, -0.033334, , , 
1618796466.127564, , , , -0.100946, -0.136138, 0.007988, , , 
1618796466.1928282, , , , -0.030812, -0.036461, -0.029826, , , 
1618796466.2582622, , , , -0.111317, -0.050888, -0.024180, , , 
1618796466.3275928, , , , -0.082029, -0.049784, -0.017193, , , 
1618796466.39354, , , , -0.091643, 0.003840, -0.024005, , , 
1618796466.427925, , , , -0.034579, -0.059343, 0.007990, , , 
1618796466.498283, , , , -0.120907, -0.049435, -0.002247, , , 
1618796466.5277162, , , , -0.066813, -0.034993, 0.000419, , , 
1618796466.593682, , , , -0.032147, -0.034496, 0.004492, , , 
1618796466.627904, , , , -0.135803, -0.005191, 0.000737, , , 
1618796466.700274, , , , -0.073347, -0.043256, 0.006202, , , 
1618796466.778188, , , , -0.183996, 0.082397, -0.008007, , , 
1618796466.847443, , , , -0.188677, 0.005587, -0.023032, , , 
1618796466.877421, , , , -0.137894, 0.025843, 0.008051, , , 
1618796466.942202, , , , -0.067322, 0.038230, 0.011714, , , 
1618796467.0078812, , , , -0.052540, -0.007169, 0.000813, , , 
1618796467.0775452, , , , -0.021847, -0.034504, 0.001181, , , 
1618796467.142905, , , , 0.015352, -0.033045, -0.011579, , , 
1618796467.208739, , , , -0.026068, -0.034269, -0.008106, , , 
1618796467.277433, , , , 0.116082, 0.086257, -0.004780, , , 
1618796467.342813, , , , 0.032835, -0.049718, 0.024253, , , 
1618796467.408564, , , , -0.044662, -0.066934, -0.005885, , , 
1618796467.477443, , , , 0.014865, -0.056212, -0.016643, , , 
1618796467.542613, , , , -0.024118, -0.006064, -0.015671, , , 
1618796467.608903, , , , -0.001288, 0.011996, -0.019390, , , 
1618796467.6786342, , , , 0.002205, -0.020804, -0.003796, , , 
1618796467.744353, , , , 0.054694, -0.028979, -0.009375, , , 
1618796467.777554, , , , 0.015494, -0.017881, -0.010130, , , 
1618796467.842267, , , , 0.060054, -0.029217, -0.010754, , , 
1618796467.908444, , , , -0.035293, -0.056031, -0.002169, , , 
1618796467.977213, , , , 0.040592, -0.045726, 0.000075, , , 
1618796468.043693, , , , 0.067580, -0.038112, 0.003114, , , 
1618796468.0778131, , , , 0.017684, 0.021347, -0.006377, , , 
1618796468.143221, , , , -0.000751, 0.006315, 0.001329, , , 
1618796468.2093902, , , , 0.004462, 0.020823, -0.007376, , , 
1618796468.27732, , , , 0.050260, 0.000578, -0.012627, , , 
1618796468.343454, , , , 0.141688, -0.011806, -0.010121, , , 
1618796468.4119549, , , , 0.052438, 0.010119, -0.018010, , , 
1618796468.48015, , , , 0.034025, -0.173737, 0.055529, , , 
1618796468.5472069, , , , 0.052324, -0.038518, 0.004231, , , 
1618796468.577383, , , , 0.048810, -0.076095, 0.057447, , , 
1618796468.642644, , , , 0.062325, -0.087791, 0.026853, , , 
1618796468.7099938, , , , 0.046817, -0.091417, 0.009819, , , 
1618796468.7782512, , , , -0.011718, -0.013152, -0.012973, , , 
1618796468.842342, , , , 0.122449, -0.100963, 0.030737, , , 
1618796468.906544, , , , 0.080522, 0.059288, -0.002328, , , 
1618796468.9772, , , , 0.074811, 0.046870, 0.022824, , , 
1618796469.041844, , , , 0.088846, 0.019222, 0.014401, , , 
1618796469.105834, , , , 0.075847, 0.082972, -0.015988, , , 
1618796469.17818, , , , 0.112061, -0.006306, 0.007671, , , 
1618796469.2444382, , , , 0.039897, 0.051535, -0.005765, , , 
1618796469.277663, , , , 0.001705, 0.041685, -0.004029, , , 
1618796469.343552, , , , 0.063319, 0.002676, -0.001048, , , 
1618796469.410213, , , , 0.078388, 0.007746, -0.013613, , , 
1618796469.477096, , , , 0.058574, 0.030058, -0.015606, , , 
1618796469.544023, , , , 0.080655, -0.019295, -0.026013, , , 
1618796469.610958, , , , 0.053762, -0.013203, -0.040076, , , 
1618796469.677847, , , , -0.015613, -0.013540, -0.017614, , , 
1618796469.746347, , , , 0.088442, -0.052245, -0.003035, , , 
1618796469.777491, , , , 0.057910, -0.039506, -0.017278, , , 
1618796469.8443131, , , , -0.020340, 0.004225, -0.025864, , , 
1618796469.909266, , , , -0.048292, -0.014068, -0.014001, , , 
1618796469.9782271, , , , 0.022134, -0.023525, -0.012024, , , 
1618796470.045996, , , , -0.023582, -0.009375, -0.009631, , , 
1618796470.077399, , , , -0.006915, -0.002981, -0.018360, , , 
1618796470.143602, , , , 0.021730, -0.011797, -0.007608, , , 
1618796470.210826, , , , 0.007592, -0.008370, -0.006597, , , 
1618796470.278358, , , , -0.008158, -0.044408, 0.012568, , , 
1618796470.346056, , , , -0.003333, 0.022263, -0.008674, , , 
1618796470.377435, , , , 0.066708, -0.045207, 0.007775, , , 
1618796470.4432669, , , , -0.096498, 0.042775, -0.009891, , , 
1618796470.509042, , , , -0.012818, 0.015632, 0.011445, , , 
1618796470.577172, , , , -0.115616, 0.028414, 0.018281, , , 
1618796470.641216, , , , -0.079177, -0.014762, 0.023603, , , 
1618796470.706108, , , , -0.100960, 0.012586, 0.017123, , , 
1618796470.778036, , , , -0.083225, -0.005247, 0.013706, , , 
1618796470.844335, , , , -0.110695, 0.015059, 0.005222, , , 
1618796470.9127321, , , , -0.026352, -0.078326, 0.021374, , , 
1618796470.981138, , , , -0.050739, -0.007950, -0.024370, , , 
1618796471.048305, , , , -0.121227, -0.034562, -0.014619, , , 
1618796471.077283, , , , -0.127988, -0.041051, -0.010972, , , 
1618796471.141468, , , , -0.128336, -0.081232, 0.008789, , , 
1618796471.2065911, , , , -0.122984, -0.023859, -0.006744, , , 
1618796471.277142, , , , -0.106910, -0.060808, -0.007195, , , 
1618796471.34252, , , , -0.036182, -0.052788, -0.009942, , , 
1618796471.4077868, , , , -0.069142, -0.037556, -0.009835, , , 
1618796471.4774709, , , , -0.024247, -0.060190, -0.010730, , , 
1618796471.542307, , , , -0.097581, -0.082521, -0.005089, , , 
1618796471.60712, , , , -0.008347, -0.139050, 0.007431, , , 
1618796471.677002, , , , 0.009666, -0.072296, -0.005581, , , 
1618796471.742873, , , , -0.061376, -0.050085, -0.008628, , , 
1618796471.808968, , , , -0.046459, 0.004279, -0.023367, , , 
1618796471.8772569, , , , -0.052514, -0.021003, -0.011238, , , 
1618796471.94342, , , , -0.001767, -0.026296, -0.004228, , , 
1618796472.008919, , , , -0.035573, -0.017325, -0.012889, , , 
1618796472.07797, , , , 0.031593, -0.072231, -0.003714, , , 
1618796472.1438189, , , , -0.049502, -0.000044, -0.019064, , , 
1618796472.2093248, , , , -0.080549, -0.034137, -0.013167, , , 
1618796472.277477, , , , 0.033776, -0.067768, -0.007476, , , 
1618796472.343226, , , , 0.013312, -0.040093, -0.007560, , , 
1618796472.408945, , , , -0.005117, -0.007668, -0.019075, , , 
1618796472.47719, , , , 0.034675, -0.028135, -0.002311, , , 
1618796472.542787, , , , 0.019289, -0.029386, 0.002207, , , 
1618796472.608125, , , , 0.005506, 0.011191, -0.000460, , , 
1618796472.676995, , , , 0.041398, -0.005891, -0.007379, , , 
1618796472.7434878, , , , 0.063560, 0.076743, -0.025369, , , 
1618796472.8096871, , , , -0.023541, 0.030928, -0.015994, , , 
1618796472.877036, , , , 0.062632, 0.018650, -0.020362, , , 
1618796472.944082, , , , 0.064399, 0.041632, -0.002180, , , 
1618796473.009822, , , , 0.087338, 0.068459, -0.028383, , , 
1618796473.076994, , , , 0.050894, 0.029675, 0.001798, , , 
1618796473.1425729, , , , 0.103539, 0.014644, 0.009480, , , 
1618796473.2105222, , , , 0.047762, 0.001380, -0.001252, , , 
1618796473.27789, , , , 0.029503, 0.008593, -0.045502, , , 
1618796473.345401, , , , -0.040672, 0.173880, -0.060762, , , 
1618796473.415214, , , , 0.146135, -0.057048, 0.022026, , , 
1618796473.482706, , , , 0.091569, 0.029864, -0.007366, , , 
1618796473.548979, , , , 0.084616, 0.015238, 0.005478, , , 
1618796473.577124, , , , 0.014720, 0.055306, -0.019735, , , 
1618796473.642127, , , , 0.100429, -0.039363, 0.012827, , , 
1618796473.708362, , , , 0.043399, 0.030153, -0.010935, , , 
1618796473.7771769, , , , 0.082107, 0.043832, -0.016005, , , 
1618796473.843248, , , , 0.097186, 0.004363, -0.005012, , , 
1618796473.909049, , , , 0.121399, -0.107888, 0.008903, , , 
1618796473.977098, , , , 0.089781, 0.102686, -0.058580, , , 
1618796474.044557, , , , 0.176451, -0.035348, -0.021249, , , 
1618796474.1108499, , , , 0.060192, -0.011238, -0.023838, , , 
1618796474.177812, , , , 0.032768, 0.011150, -0.042289, , , 
1618796474.24472, , , , 0.072771, -0.030086, -0.007522, , , 
1618796474.310844, , , , -0.011326, -0.016476, -0.004167, , , 
1618796474.377884, , , , 0.066805, -0.041453, -0.004746, , , 
1618796474.444318, , , , -0.022437, -0.000519, -0.006426, , , 
1618796474.5110579, , , , 0.001372, -0.049438, 0.005839, , , 
1618796474.5794, , , , -0.039033, 0.036658, -0.039333, , , 
1618796474.64564, , , , 0.080738, -0.065462, -0.004398, , , 
1618796474.677402, , , , -0.021215, 0.001874, -0.022159, , , 
1618796474.742758, , , , 0.003925, -0.012331, -0.015088, , , 
1618796474.809655, , , , -0.074425, 0.003345, -0.020719, , , 
1618796474.8769631, , , , -0.005232, -0.066042, 0.000761, , , 
1618796474.944048, , , , -0.161920, -0.061468, -0.002694, , , 
1618796475.010669, , , , -0.113565, -0.024823, -0.022193, , , 
1618796475.078745, , , , -0.042735, -0.031159, -0.026447, , , 
1618796475.1457, , , , -0.083077, -0.041199, -0.022906, , , 
1618796475.212136, , , , -0.100903, 0.038955, -0.053588, , , 
1618796475.279989, , , , -0.013867, -0.106316, -0.003650, , , 
1618796475.347126, , , , -0.126973, -0.033095, -0.018288, , , 
1618796475.377176, , , , -0.091987, -0.082000, -0.006739, , , 
1618796475.442595, , , , -0.167126, -0.007894, -0.030002, , , 
1618796475.509303, , , , -0.036260, -0.087745, -0.008499, , , 
1618796475.577938, , , , -0.111489, -0.022989, -0.005878, , , 
1618796475.645091, , , , 0.012040, -0.090579, 0.015863, , , 
1618796475.7125158, , , , -0.124379, -0.033597, 0.010670, , , 
1618796475.7814422, , , , -0.055021, -0.123980, 0.007749, , , 
1618796475.849235, , , , 0.010436, -0.026843, -0.010372, , , 
1618796475.876888, , , , 0.071161, -0.134275, 0.032916, , , 
1618796475.943779, , , , -0.143987, -0.001043, -0.001104, , , 
1618796476.011713, , , , -0.053422, -0.033288, 0.010520, , , 
1618796476.0797892, , , , -0.105480, 0.017101, 0.015502, , , 
1618796476.1473432, , , , -0.081108, 0.013692, 0.022565, , , 
1618796476.1771631, , , , -0.028020, -0.000316, 0.023833, , , 
1618796476.243361, , , , -0.059508, -0.018069, 0.026177, , , 
1618796476.310843, , , , 0.026317, -0.009003, 0.017756, , , 
1618796476.378154, , , , -0.034590, -0.052331, 0.011217, , , 
1618796476.445218, , , , -0.014849, -0.115018, -0.010255, , , 
1618796476.5130482, , , , 0.062365, -0.062035, -0.019836, , , 
1618796476.5810962, , , , 0.020280, -0.027458, -0.010372, , , 
1618796476.648689, , , , -0.011684, 0.000006, -0.008372, , , 
1618796476.6770039, , , , 0.023764, 0.031070, -0.004331, , , 
1618796476.744324, , , , 0.018345, 0.009233, -0.008350, , , 
1618796476.812296, , , , 0.030668, -0.030625, -0.011218, , , 
1618796476.8811588, , , , 0.042077, -0.045729, -0.017265, , , 
1618796476.949115, , , , -0.022564, -0.077522, -0.001723, , , 
1618796476.977027, , , , 0.023312, 0.072726, -0.038941, , , 
1618796477.051062, , , , -0.013672, 0.034694, -0.015043, , , 
1618796477.1271071, , , , 0.098030, 0.077842, 0.008289, , , 
1618796477.193558, , , , 0.107314, 0.073225, 0.019801, , , 
1618796477.2611132, , , , 0.010691, 0.141613, 0.008952, , , 
1618796477.329094, , , , 0.083088, 0.083911, 0.018685, , , 
1618796477.3968248, , , , 0.104027, 0.044983, 0.020626, , , 
1618796477.427181, , , , 0.056006, 0.008935, 0.027273, , , 
1618796477.494374, , , , 0.060128, 0.001298, 0.011278, , , 
1618796477.5620852, , , , -0.023455, 0.056436, -0.015087, , , 
1618796477.630274, , , , 0.245212, -0.047145, 0.015518, , , 
1618796477.698442, , , , 0.034280, 0.059562, -0.025400, , , 
1618796477.726933, , , , 0.059220, 0.110464, -0.040867, , , 
1618796477.7932382, , , , 0.073716, 0.008331, 0.005974, , , 
1618796477.861052, , , , 0.074462, 0.054523, -0.022032, , , 
1618796477.930212, , , , 0.142480, 0.030420, -0.017349, , , 
1618796477.998848, , , , 0.087102, 0.035145, -0.026386, , , 
1618796478.026845, , , , 0.086908, 0.005017, -0.019750, , , 
1618796478.093759, , , , 0.094476, 0.028629, -0.035400, , , 
1618796478.161656, , , , 0.083680, 0.087349, -0.070425, , , 
1618796478.231271, , , , 0.160655, -0.080802, -0.009127, , , 
1618796478.299746, , , , 0.037620, -0.050792, -0.002736, , , 
1618796478.377933, , , , -0.029438, -0.030081, -0.006806, , , 
1618796478.44697, , , , 0.049053, -0.053560, -0.001391, , , 
1618796478.515846, , , , 0.001790, -0.003621, -0.014498, , , 
1618796478.585287, , , , 0.035461, -0.015252, -0.010488, , , 
1618796478.6532621, , , , 0.017186, 0.020596, -0.026188, , , 
1618796478.727024, , , , -0.016717, 0.028403, -0.025809, , , 
1618796478.79532, , , , 0.067963, -0.071257, 0.006372, , , 
1618796478.864287, , , , -0.044182, -0.002446, -0.005071, , , 
1618796478.93286, , , , -0.006780, -0.027740, -0.000111, , , 
1618796479.002183, , , , -0.041868, -0.025792, -0.002683, , , 
1618796479.076941, , , , -0.035540, -0.052517, 0.004690, , , 
1618796479.145596, , , , -0.113098, -0.038626, 0.004128, , , 
1618796479.21462, , , , -0.200936, -0.019742, -0.002235, , , 
1618796479.28434, , , , -0.044671, -0.150832, 0.037029, , , 
1618796479.353681, , , , -0.089599, 0.005905, -0.007845, , , 
1618796479.4278421, , , , -0.029169, -0.028813, -0.006950, , , 
1618796479.4963741, , , , -0.147862, -0.025760, -0.005275, , , 
1618796479.565578, , , , -0.162730, 0.015472, -0.023181, , , 
1618796479.635065, , , , -0.084975, -0.062130, -0.015701, , , 
1618796479.703628, , , , -0.111266, -0.005609, -0.035882, , , 
1618796479.77688, , , , -0.083795, -0.072965, -0.020349, , , 
1618796479.845331, , , , -0.042297, -0.022496, -0.021879, , , 
1618796479.914126, , , , -0.145939, 0.079357, -0.033595, , , 
1618796479.985884, , , , 0.049399, -0.119999, 0.006600, , , 
1618796480.056597, , , , -0.149227, 0.006797, -0.023936, , , 
1618796480.126927, , , , -0.110417, -0.004011, -0.022672, , , 
1618796480.19614, , , , -0.029080, -0.028245, -0.012057, , , 
1618796480.265665, , , , -0.033102, 0.022651, -0.016346, , , 
1618796480.335075, , , , -0.036724, -0.063361, 0.013441, , , 
1618796480.40453, , , , -0.007291, -0.068730, 0.004690, , , 
1618796480.4767962, , , , -0.095544, -0.051712, -0.005438, , , 
1618796480.546341, , , , -0.057034, -0.101040, 0.002608, , , 
1618796480.6154752, , , , 0.029273, -0.045194, -0.012141, , , 
1618796480.686483, , , , -0.039303, 0.028642, -0.015031, , , 
1618796480.757419, , , , -0.006509, 0.028551, -0.003069, , , 
1618796480.8284512, , , , 0.000268, 0.000533, -0.004460, , , 
1618796480.906602, , , , 0.006856, -0.008675, -0.001828, , , 
1618796480.9781451, , , , 0.078142, -0.005851, 0.001556, , , 
1618796481.0501041, , , , 0.009773, 0.088006, -0.029455, , , 
1618796481.126892, , , , -0.042175, 0.008808, -0.017207, , , 
1618796481.196912, , , , -0.020149, -0.023893, -0.020838, , , 
1618796481.2662969, , , , -0.008146, 0.035855, -0.019857, , , 
1618796481.3363109, , , , 0.020593, 0.013209, -0.012232, , , 
1618796481.40563, , , , 0.033347, 0.016157, -0.012948, , , 
1618796481.476876, , , , 0.026670, 0.014742, -0.006046, , , 
1618796481.546628, , , , 0.079763, -0.044571, -0.000025, , , 
1618796481.61719, , , , 0.030485, 0.034262, -0.012319, , , 
1618796481.6860151, , , , 0.130104, -0.066437, 0.011732, , , 
1618796481.755704, , , , 0.116330, 0.009080, -0.018207, , , 
1618796481.827388, , , , 0.105124, -0.025794, -0.000784, , , 
1618796481.897382, , , , -0.021864, 0.039876, -0.022348, , , 
1618796481.967423, , , , 0.227133, 0.165829, -0.063284, , , 
1618796482.0377002, , , , 0.296811, -0.080817, -0.006389, , , 
1618796482.108249, , , , 0.071957, -0.064488, -0.020182, , , 
1618796482.178379, , , , 0.116967, -0.111810, -0.013608, , , 
1618796482.248732, , , , 0.081106, -0.020318, -0.015961, , , 
1618796482.318503, , , , 0.179302, -0.141267, 0.034472, , , 
1618796482.3890362, , , , 0.055521, 0.032783, 0.017279, , , 
1618796482.458191, , , , 0.043432, 0.046860, 0.015996, , , 
1618796482.530534, , , , 0.073763, 0.033201, 0.019450, , , 
1618796482.60079, , , , 0.054367, 0.043003, 0.009099, , , 
1618796482.676838, , , , 0.084412, -0.039180, 0.019212, , , 
1618796482.748159, , , , 0.055997, 0.018673, 0.008650, , , 
1618796482.8181849, , , , 0.026169, -0.031131, 0.007346, , , 
1618796482.889048, , , , 0.083948, -0.048379, -0.000863, , , 
1618796482.9595451, , , , -0.017592, -0.021116, -0.008329, , , 
1618796483.032022, , , , 0.017587, -0.032189, -0.003792, , , 
1618796483.102675, , , , -0.022259, -0.015904, -0.002449, , , 
1618796483.177764, , , , -0.017554, 0.004080, -0.016518, , , 
1618796483.247335, , , , 0.001224, -0.010510, -0.013510, , , 
1618796483.3176079, , , , 0.008512, -0.024629, -0.014884, , , 
1618796483.39094, , , , 0.004847, -0.024956, -0.012566, , , 
1618796483.460995, , , , -0.040793, -0.059650, 0.003579, , , 
1618796483.53092, , , , 0.008471, -0.021181, -0.015483, , , 
1618796483.600937, , , , -0.066605, -0.025062, -0.010939, , , 
1618796483.6768808, , , , -0.121402, -0.012244, -0.013592, , , 
1618796483.74933, , , , -0.190990, 0.023615, -0.022365, , , 
1618796483.821033, , , , -0.064387, -0.046024, -0.013906, , , 
1618796483.8917542, , , , -0.158191, 0.005888, -0.020712, , , 
1618796483.96263, , , , -0.080238, -0.029851, -0.009793, , , 
1618796484.035551, , , , -0.088731, -0.023423, -0.009228, , , 
1618796484.107081, , , , -0.086539, -0.036368, -0.008533, , , 
1618796484.17869, , , , -0.135041, 0.072313, -0.040453, , , 
1618796484.250019, , , , 0.075742, -0.130066, 0.016441, , , 
1618796484.328032, , , , -0.206416, -0.003609, -0.008731, , , 
1618796484.399092, , , , -0.073261, -0.025278, -0.006849, , , 
1618796484.4695039, , , , -0.175322, -0.010040, -0.003233, , , 
1618796484.540574, , , , -0.071167, -0.035092, 0.023837, , , 
1618796484.611889, , , , -0.042218, -0.085659, 0.038331, , , 
1618796484.6830258, , , , -0.084903, -0.016957, 0.015406, , , 
1618796484.753834, , , , -0.026325, -0.019659, 0.024078, , , 
1618796484.827783, , , , -0.152673, 0.060039, -0.018356, , , 
1618796484.8982491, , , , 0.073273, -0.057404, -0.013463, , , 
1618796484.969717, , , , -0.144999, 0.008821, -0.018783, , , 
1618796485.043202, , , , -0.024796, -0.009009, -0.010489, , , 
1618796485.1139889, , , , -0.058416, 0.003985, -0.011545, , , 
1618796485.1852741, , , , -0.038983, 0.009894, -0.009405, , , 
1618796485.256339, , , , 0.088446, -0.023731, 0.001360, , , 
1618796485.3297548, , , , 0.017123, 0.026093, -0.005626, , , 
1618796485.401322, , , , -0.010560, -0.060134, 0.012048, , , 
1618796485.4775538, , , , 0.165403, -0.059429, 0.005744, , , 
1618796485.548716, , , , 0.061150, 0.028070, -0.007009, , , 
1618796485.620191, , , , 0.158345, 0.040050, -0.011168, , , 
1618796485.6910229, , , , 0.015623, 0.074926, -0.025085, , , 
1618796485.763267, , , , 0.168205, -0.042878, 0.004213, , , 
1618796485.835612, , , , -0.043889, 0.120911, -0.020130, , , 
1618796485.907141, , , , 0.139475, -0.049307, -0.004562, , , 
1618796485.979363, , , , 0.054379, 0.029920, -0.034936, , , 
1618796486.052926, , , , 0.147975, 0.072337, -0.022608, , , 
1618796486.1285, , , , 0.172020, 0.068193, -0.027431, , , 
1618796486.200325, , , , 0.115590, 0.067761, -0.060169, , , 
1618796486.276643, , , , 0.106002, -0.023614, -0.039116, , , 
1618796486.348896, , , , 0.114212, -0.019976, -0.052957, , , 
1618796486.420177, , , , 0.141811, -0.068936, -0.035189, , , 
1618796486.4918609, , , , 0.108848, -0.046903, -0.024032, , , 
1618796486.5639482, , , , 0.124292, -0.036798, -0.025169, , , 
1618796486.6363158, , , , 0.107948, 0.009959, -0.032652, , , 
1618796486.70783, , , , 0.046667, -0.011350, -0.024906, , , 
1618796486.779941, , , , 0.102492, -0.049755, -0.004762, , , 
1618796486.852102, , , , -0.038672, -0.005542, -0.011816, , , 
1618796486.9284, , , , -0.067720, -0.076349, 0.008418, , , 
1618796487.000706, , , , -0.081133, -0.010499, -0.002998, , , 
1618796487.076992, , , , -0.001098, -0.025098, -0.003896, , , 
1618796487.148697, , , , -0.022778, -0.019221, -0.004706, , , 
1618796487.220416, , , , -0.044162, -0.020744, 0.001828, , , 
1618796487.292896, , , , -0.066793, -0.009102, -0.004463, , , 
1618796487.364964, , , , -0.150752, 0.050213, -0.017286, , , 
1618796487.437757, , , , -0.054392, -0.088118, 0.004143, , , 
1618796487.5096679, , , , -0.147218, -0.004819, -0.016245, , , 
1618796487.582104, , , , -0.164299, -0.047793, 0.003775, , , 
1618796487.654573, , , , -0.114747, -0.043969, -0.001482, , , 
1618796487.728333, , , , -0.179544, -0.013011, -0.012938, , , 
1618796487.801162, , , , -0.070093, -0.070277, -0.003582, , , 
1618796487.878427, , , , -0.174094, -0.026672, -0.013947, , , 
1618796487.951518, , , , -0.086952, -0.106319, 0.003170, , , 
1618796488.0289369, , , , -0.090581, 0.031912, -0.025070, , , 
1618796488.10255, , , , -0.056749, -0.040301, -0.007713, , , 
1618796488.178844, , , , 0.017451, -0.050002, 0.007583, , , 
1618796488.251998, , , , -0.165584, 0.009882, 0.006165, , , 
1618796488.329239, , , , -0.034869, -0.055505, 0.021814, , , 
1618796488.405016, , , , -0.138807, -0.008376, -0.024308, , , 
1618796488.478941, , , , -0.068294, -0.013538, -0.021752, , , 
1618796488.552872, , , , -0.048142, -0.012082, -0.023218, , , 
1618796488.629251, , , , 0.035253, -0.069403, -0.013350, , , 
1618796488.70297, , , , -0.036161, -0.065984, -0.021426, , , 
1618796488.7792249, , , , 0.045354, -0.044487, -0.013943, , , 
1618796488.852717, , , , -0.088276, 0.009094, -0.007372, , , 
1618796488.929696, , , , 0.034377, -0.028518, -0.007850, , , 
1618796489.002843, , , , 0.086787, -0.039702, -0.004453, , , 
1618796489.0791302, , , , -0.001598, 0.005973, -0.023583, , , 
1618796489.152289, , , , 0.039574, -0.001467, -0.017763, , , 
1618796489.229257, , , , 0.143588, 0.011102, -0.029773, , , 
1618796489.3027658, , , , 0.075905, 0.004581, -0.009069, , , 
1618796489.3789968, , , , 0.191147, 0.024741, -0.019590, , , 
1618796489.452575, , , , 0.014307, 0.096964, -0.046476, , , 
1618796489.528723, , , , 0.162691, -0.057718, -0.003886, , , 
1618796489.601964, , , , 0.123047, 0.021319, -0.018801, , , 
1618796489.679552, , , , 0.127190, 0.004270, -0.015211, , , 
1618796489.75349, , , , 0.157205, -0.073075, -0.006554, , , 
1618796489.8290238, , , , 0.132792, 0.056756, -0.040057, , , 
1618796489.901963, , , , 0.163427, -0.041681, -0.024312, , , 
1618796489.9796472, , , , 0.002026, -0.003664, -0.018566, , , 
1618796490.054223, , , , -0.021916, 0.029879, -0.030632, , , 
1618796490.128951, , , , 0.087787, -0.028370, -0.019174, , , 
1618796490.201779, , , , 0.054229, 0.005817, -0.020875, , , 
1618796490.279817, , , , 0.074869, -0.021399, -0.012155, , , 
1618796490.3539062, , , , 0.044735, -0.080628, 0.000612, , , 
1618796490.430037, , , , 0.058809, 0.048537, -0.035105, , , 
1618796490.503151, , , , 0.061357, -0.043778, -0.016987, , , 
1618796490.580254, , , , -0.022712, -0.004696, -0.010244, , , 
1618796490.653655, , , , -0.035600, -0.021973, -0.005173, , , 
1618796490.729861, , , , -0.061785, -0.010583, -0.002658, , , 
1618796490.8050818, , , , -0.095215, 0.005983, -0.004397, , , 
1618796490.879626, , , , -0.091595, -0.021981, -0.007743, , , 
1618796490.953981, , , , -0.115751, -0.122897, 0.023172, , , 
1618796491.030517, , , , -0.041775, -0.043736, -0.002924, , , 
1618796491.104974, , , , -0.120395, 0.003262, -0.010179, , , 
1618796491.179676, , , , -0.170621, -0.052491, 0.018569, , , 
1618796491.253274, , , , -0.140737, -0.056475, 0.015325, , , 
1618796491.330389, , , , -0.153942, -0.021726, 0.001217, , , 
1618796491.4064322, , , , -0.064303, -0.083624, 0.013301, , , 
1618796491.4822621, , , , -0.150633, -0.018722, -0.005727, , , 
1618796491.560297, , , , -0.080702, -0.102873, 0.012927, , , 
1618796491.633265, , , , 0.034089, -0.095486, 0.028704, , , 
1618796491.706871, , , , -0.140948, -0.053993, 0.009309, , , 
1618796491.78041, , , , -0.023932, 0.004524, 0.014464, , , 
1618796491.8543692, , , , -0.123525, 0.004630, 0.020969, , , 
1618796491.930696, , , , -0.017957, 0.045452, 0.013655, , , 
1618796492.004486, , , , 0.073827, -0.018451, 0.065550, , , 
1618796492.080357, , , , 0.022172, 0.017879, 0.026251, , , 
1618796492.153966, , , , -0.053206, 0.060404, -0.000879, , , 
1618796492.2298331, , , , 0.111834, -0.014821, -0.004449, , , 
1618796492.304297, , , , 0.025562, 0.023788, -0.021140, , , 
1618796492.380444, , , , 0.050725, 0.003695, -0.014480, , , 
1618796492.454819, , , , 0.166465, 0.022681, -0.018739, , , 
1618796492.529931, , , , 0.122955, 0.058617, -0.025168, , , 
1618796492.6043658, , , , 0.184432, 0.018647, -0.012525, , , 
1618796492.680248, , , , 0.127196, 0.072767, -0.029041, , , 
1618796492.7549381, , , , 0.102070, 0.072629, -0.029695, , , 
1618796492.831187, , , , 0.205833, -0.026707, -0.001487, , , 
1618796492.905375, , , , 0.064286, 0.033022, -0.029817, , , 
1618796492.980435, , , , 0.066943, -0.020875, -0.022006, , , 
1618796493.0547662, , , , 0.115141, -0.059638, -0.023579, , , 
1618796493.130569, , , , 0.088424, -0.020612, -0.032451, , , 
1618796493.204483, , , , 0.145255, -0.022686, -0.029544, , , 
1618796493.280415, , , , 0.113625, 0.048745, -0.047909, , , 
1618796493.35564, , , , 0.068156, 0.016573, -0.046192, , , 
1618796493.4338431, , , , 0.142570, -0.086522, -0.011227, , , 
1618796493.508455, , , , -0.025044, 0.003356, -0.026345, , , 
1618796493.583648, , , , -0.001378, -0.024148, -0.011782, , , 
1618796493.658258, , , , 0.025362, -0.041328, -0.002064, , , 
1618796493.732108, , , , -0.014257, 0.000846, -0.016738, , , 
1618796493.807773, , , , -0.013646, -0.009036, -0.009117, , , 
1618796493.8828878, , , , 0.026551, -0.001105, -0.014175, , , 
1618796493.957998, , , , -0.046653, 0.024876, -0.025738, , , 
1618796494.034267, , , , 0.043521, -0.063357, 0.005723, , , 
1618796494.109091, , , , -0.130080, -0.006334, 0.001179, , , 
1618796494.18441, , , , -0.289797, -0.040353, 0.010284, , , 
1618796494.259177, , , , -0.225869, -0.076909, 0.010021, , , 
1618796494.334095, , , , -0.172156, -0.034292, -0.004840, , , 
1618796494.409793, , , , -0.123485, -0.090822, 0.000253, , , 
1618796494.484953, , , , -0.126789, -0.045016, -0.010005, , , 
1618796494.5602288, , , , -0.159625, 0.052608, -0.016557, , , 
1618796494.6348782, , , , -0.003999, -0.137737, 0.025856, , , 
1618796494.709828, , , , -0.172251, 0.005704, -0.002376, , , 
1618796494.78515, , , , -0.230093, 0.003947, -0.006629, , , 
1618796494.860746, , , , -0.102509, -0.059900, 0.009880, , , 
1618796494.9354548, , , , -0.185635, 0.005526, 0.000983, , , 
1618796495.0118198, , , , -0.124382, -0.050560, 0.003830, , , 
1618796495.087781, , , , -0.055655, -0.050866, -0.002161, , , 
1618796495.162393, , , , -0.059493, 0.085739, -0.036037, , , 
1618796495.237438, , , , -0.055551, -0.025362, -0.017207, , , 
1618796495.31342, , , , 0.009799, -0.025294, 0.006803, , , 
1618796495.38939, , , , -0.102948, 0.002987, 0.004776, , , 
1618796495.4643888, , , , -0.017789, -0.040353, 0.012606, , , 
1618796495.540402, , , , 0.050065, -0.024626, 0.008792, , , 
1618796495.6175299, , , , 0.009301, 0.029638, 0.001009, , , 
1618796495.6927829, , , , -0.025014, -0.060399, 0.020817, , , 
1618796495.767453, , , , 0.085659, -0.093096, 0.040464, , , 
1618796495.8432698, , , , 0.074874, 0.012379, 0.001077, , , 
1618796495.917809, , , , 0.081816, 0.016348, -0.008447, , , 
1618796495.993449, , , , 0.059109, 0.052964, -0.021703, , , 
1618796496.069144, , , , 0.082171, 0.001409, -0.018678, , , 
1618796496.145021, , , , 0.161628, -0.007834, -0.024902, , , 
1618796496.220759, , , , 0.107851, 0.067144, -0.043261, , , 
1618796496.296267, , , , 0.092533, -0.090348, 0.023113, , , 
1618796496.37294, , , , 0.236480, -0.064283, -0.000154, , , 
1618796496.4484181, , , , 0.124045, -0.002118, -0.023125, , , 
1618796496.524197, , , , 0.149751, -0.040551, -0.006344, , , 
1618796496.60034, , , , 0.067473, 0.046725, -0.024271, , , 
1618796496.6770148, , , , 0.132572, 0.001848, -0.014475, , , 
1618796496.7519, , , , 0.099202, 0.021404, -0.009978, , , 
1618796496.828506, , , , 0.101945, 0.007977, -0.003100, , , 
1618796496.9040751, , , , 0.094723, 0.018036, -0.011694, , , 
1618796496.979753, , , , 0.187321, -0.029004, -0.003323, , , 
1618796497.056872, , , , 0.083224, -0.000337, -0.018267, , , 
1618796497.1329079, , , , 0.037042, -0.022801, -0.015562, , , 
1618796497.209467, , , , 0.051093, -0.043056, -0.013796, , , 
1618796497.285056, , , , -0.003496, -0.010747, -0.011355, , , 
1618796497.361716, , , , 0.024331, -0.040390, 0.001041, , , 
1618796497.438932, , , , 0.003787, 0.000487, -0.012187, , , 
1618796497.51361, , , , -0.040077, 0.005612, -0.014101, , , 
1618796497.589987, , , , 0.017211, -0.073566, 0.004978, , , 
1618796497.664863, , , , -0.207685, 0.041684, -0.012119, , , 
1618796497.740941, , , , -0.176213, -0.007546, 0.001124, , , 
1618796497.817806, , , , -0.148721, -0.060202, 0.015863, , , 
1618796497.893598, , , , -0.130831, -0.020445, -0.001141, , , 
1618796497.969534, , , , -0.120410, -0.043689, -0.006372, , , 
1618796498.046809, , , , -0.079837, -0.039961, -0.007728, , , 
1618796498.1238852, , , , -0.134936, 0.054253, -0.032235, , , 
1618796498.2011929, , , , -0.006945, -0.136140, 0.005406, , , 
1618796498.2778401, , , , -0.163530, -0.008101, -0.010602, , , 
1618796498.35531, , , , -0.152384, -0.007926, -0.010118, , , 
1618796498.435166, , , , -0.096535, -0.048311, -0.003910, , , 
1618796498.511302, , , , -0.097945, -0.034643, -0.009562, , , 
1618796498.5882921, , , , -0.126619, -0.025909, -0.011850, , , 
1618796498.6644878, , , , -0.023407, -0.021817, -0.006155, , , 
1618796498.7413812, , , , 0.018248, 0.006170, -0.022198, , , 
1618796498.8188438, , , , -0.054683, -0.024683, -0.018087, , , 
1618796498.8971949, , , , 0.073831, -0.022746, -0.003930, , , 
1618796498.974199, , , , -0.084015, 0.111599, -0.006766, , , 
1618796499.0537848, , , , -0.046790, 0.033379, 0.004872, , , 
1618796499.13113, , , , -0.040400, -0.022113, -0.001705, , , 
1618796499.2085772, , , , -0.002731, -0.034232, 0.000716, , , 
1618796499.285568, , , , -0.054660, -0.002425, -0.019599, , , 
1618796499.3640451, , , , -0.030705, -0.006629, -0.023080, , , 
1618796499.4422421, , , , -0.000941, -0.035073, -0.019459, , , 
1618796499.5189018, , , , 0.026421, -0.003335, -0.025352, , , 
1618796499.597177, , , , 0.037944, -0.022636, -0.009959, , , 
1618796499.674017, , , , 0.077579, -0.012469, -0.011270, , , 
1618796499.751408, , , , 0.022315, 0.019914, -0.023637, , , 
1618796499.8288388, , , , 0.044214, 0.023329, -0.028855, , , 
1618796499.9063659, , , , 0.102983, -0.070411, -0.015037, , , 
1618796499.984682, , , , 0.022144, -0.029106, -0.002190, , , 
1618796500.061842, , , , 0.109525, -0.008034, -0.016978, , , 
1618796500.13919, , , , 0.029846, 0.061812, -0.034697, , , 
1618796500.2167702, , , , 0.084072, -0.038953, -0.013069, , , 
1618796500.294176, , , , 0.063635, -0.029449, -0.039012, , , 
1618796500.37152, , , , 0.050986, 0.011818, -0.060181, , , 
1618796500.450964, , , , 0.063020, -0.060264, -0.006220, , , 
1618796500.5282788, , , , 0.232955, -0.086746, -0.011682, , , 
1618796500.6065102, , , , 0.081842, -0.004258, -0.035214, , , 
1618796500.683772, , , , 0.100671, -0.027914, -0.015470, , , 
1618796500.7603889, , , , 0.140704, -0.018297, -0.017677, , , 
1618796500.838211, , , , 0.101523, 0.025946, -0.027577, , , 
1618796500.914816, , , , 0.101075, -0.005567, -0.013104, , , 
1618796500.9934912, , , , 0.121904, -0.023741, -0.025799, , , 
1618796501.073194, , , , 0.072520, 0.084957, -0.046842, , , 
1618796501.1528711, , , , 0.126393, -0.063651, -0.002816, , , 
1618796501.233372, , , , -0.032903, -0.002823, -0.005834, , , 
1618796501.318756, , , , 0.002418, -0.012623, -0.008535, , , 
1618796501.402534, , , , -0.020097, 0.019915, -0.015742, , , 
1618796501.486402, , , , 0.033368, -0.040709, -0.002067, , , 
1618796501.566125, , , , -0.017282, -0.005935, -0.006273, , , 
1618796501.6451979, , , , -0.075875, 0.014760, -0.020720, , , 
1618796501.723785, , , , -0.023614, -0.059788, -0.006458, , , 
1618796501.802208, , , , -0.180377, 0.048319, -0.017619, , , 
1618796501.880322, , , , -0.183338, -0.022735, -0.004671, , , 
1618796501.958654, , , , -0.110655, -0.034391, -0.005541, , , 
1618796502.037098, , , , -0.145723, 0.002471, -0.008142, , , 
1618796502.115375, , , , -0.104415, -0.059091, 0.005421, , , 
1618796502.193791, , , , -0.067731, -0.040559, -0.004206, , , 
1618796502.2725239, , , , -0.139443, 0.063938, -0.038457, , , 
1618796502.35104, , , , -0.082067, -0.053231, -0.006581, , , 
1618796502.4295192, , , , -0.125948, -0.029771, 0.009376, , , 
1618796502.5075169, , , , -0.166816, -0.020842, 0.002858, , , 
1618796502.585865, , , , -0.108693, -0.025950, 0.006857, , , 
1618796502.6641479, , , , -0.021025, -0.047777, 0.011754, , , 
1618796502.742212, , , , -0.114289, -0.001157, -0.007683, , , 
1618796502.81966, , , , -0.062546, -0.054462, 0.011695, , , 
1618796502.898511, , , , 0.086913, -0.058675, 0.006304, , , 
1618796502.976697, , , , -0.154318, -0.001496, 0.005284, , , 
1618796503.055399, , , , 0.033845, -0.008447, 0.003763, , , 
1618796503.1339111, , , , -0.002296, -0.031172, 0.002664, , , 
1618796503.2141619, , , , 0.014024, -0.011926, -0.011627, , , 
1618796503.293469, , , , -0.002028, -0.026829, -0.010614, , , 
1618796503.373827, , , , 0.008472, -0.056313, 0.000349, , , 
1618796503.454504, , , , 0.101077, -0.050658, -0.010969, , , 
1618796503.533307, , , , -0.007761, -0.011244, 0.004738, , , 
1618796503.612529, , , , 0.150613, -0.017840, -0.002464, , , 
1618796503.692081, , , , -0.011846, 0.080669, -0.028814, , , 
1618796503.77023, , , , 0.089587, -0.003111, -0.009990, , , 
1618796503.850576, , , , 0.148229, 0.019124, -0.023391, , , 
1618796503.929568, , , , 0.152950, 0.020177, -0.031684, , , 
1618796504.0088649, , , , 0.115812, 0.140928, -0.083874, , , 
1618796504.088397, , , , 0.285267, -0.030843, -0.034786, , , 
1618796504.166924, , , , 0.264590, -0.026999, -0.031051, , , 
1618796504.246561, , , , 0.136653, 0.018740, -0.053767, , , 
1618796504.32564, , , , 0.197571, -0.027783, -0.027791, , , 
1618796504.405235, , , , 0.115482, 0.010530, -0.024245, , , 
1618796504.4839149, , , , 0.140241, -0.015341, -0.015035, , , 
1618796504.5628362, , , , 0.130254, -0.038368, -0.006679, , , 
1618796504.642871, , , , 0.089052, -0.038738, 0.000364, , , 
1618796504.7216492, , , , 0.041987, -0.012830, -0.004696, , , 
1618796504.8012872, , , , -0.004856, 0.006946, -0.005360, , , 
1618796504.880776, , , , 0.018821, -0.029431, 0.004330, , , 
1618796504.961306, , , , -0.013105, -0.006925, 0.004627, , , 
1618796505.040896, , , , 0.001805, -0.020524, 0.002535, , , 
1618796505.120249, , , , -0.051015, -0.078645, 0.026149, , , 
1618796505.198587, , , , -0.048922, 0.001259, -0.000989, , , 
1618796505.2777262, , , , -0.040718, -0.053294, 0.014609, , , 
1618796505.356839, , , , -0.224482, 0.002449, 0.005647, , , 
1618796505.436836, , , , -0.210816, -0.025995, 0.012889, , , 
1618796505.516419, , , , -0.318534, 0.012047, 0.004821, , , 
1618796505.59625, , , , -0.132645, -0.120235, 0.022053, , , 
1618796505.675723, , , , -0.246723, -0.038337, -0.001034, , , 
1618796505.7553558, , , , -0.104333, -0.062162, -0.003592, , , 
1618796505.835647, , , , -0.065667, -0.158570, 0.013917, , , 
1618796505.915657, , , , -0.194158, -0.016386, -0.006089, , , 
1618796505.9975429, , , , -0.180533, -0.031927, -0.000061, , , 
1618796506.077983, , , , -0.089393, -0.042057, 0.007676, , , 
1618796506.1589022, , , , -0.070293, 0.024927, 0.004445, , , 
1618796506.2390661, , , , -0.101155, 0.022629, -0.004324, , , 
1618796506.318136, , , , -0.054918, -0.022563, 0.062312, , , 
1618796506.399075, , , , 0.096760, -0.011179, 0.001159, , , 
1618796506.478327, , , , -0.106710, 0.038883, 0.013722, , , 
1618796506.55879, , , , 0.037054, -0.003466, 0.019635, , , 
1618796506.638442, , , , 0.036219, -0.019236, 0.004028, , , 
1618796506.718035, , , , -0.006697, -0.010601, -0.003218, , , 
1618796506.7969708, , , , 0.018540, -0.017669, -0.002765, , , 
1618796506.8790789, , , , 0.074221, -0.049348, 0.000965, , , 
1618796506.959352, , , , 0.069357, 0.040156, -0.028426, , , 
1618796507.040482, , , , 0.066066, -0.025415, 0.006754, , , 
1618796507.1201081, , , , 0.160274, -0.015103, -0.007179, , , 
1618796507.200902, , , , -0.001714, 0.067649, -0.032783, , , 
1618796507.280065, , , , 0.085474, -0.036975, 0.003632, , , 
1618796507.360707, , , , 0.127871, -0.055147, 0.006117, , , 
1618796507.4412951, , , , 0.046471, 0.019244, 0.002296, , , 
1618796507.5205379, , , , 0.136036, 0.008006, 0.015033, , , 
1618796507.600754, , , , 0.308251, -0.097170, 0.024082, , , 
1618796507.679909, , , , 0.032762, 0.085244, -0.021178, , , 
1618796507.760165, , , , 0.074528, -0.038802, -0.002808, , , 
1618796507.840691, , , , 0.107916, -0.048262, 0.012037, , , 
1618796507.921344, , , , 0.063289, 0.007935, 0.002068, , , 
1618796508.002192, , , , 0.075716, -0.080969, 0.016762, , , 
1618796508.082304, , , , 0.102938, -0.121848, 0.030994, , , 
1618796508.163965, , , , 0.101750, 0.041044, 0.053064, , , 
1618796508.246083, , , , 0.037453, -0.067118, 0.080359, , , 
1618796508.3274531, , , , 0.046806, -0.228202, 0.046466, , , 
1618796508.4112601, , , , 0.106024, -0.227605, 0.057316, , , 
1618796508.492834, , , , -0.021671, -0.146760, -0.145849, , , 
1618796508.5735269, , , , -0.031032, 0.012912, -0.250974, , , 
1618796508.655501, , , , -0.136082, -0.213757, -0.114250, , , 
1618796508.736702, , , , 0.076719, -0.179744, -0.002183, , , 
1618796508.817471, , , , 0.025761, -0.267633, 0.034357, , , 
1618796508.8979402, , , , 0.129072, -0.058739, -0.059559, , , 
1618796508.978953, , , , 0.095907, 0.013140, -0.035857, , , 
1618796509.05935, , , , 0.097062, -0.005298, 0.011925, , , 
1618796509.140843, , , , 0.100465, -0.060389, 0.019590, , , 
1618796509.221266, , , , 0.091632, -0.061228, 0.040347, , , 
1618796509.301363, , , , 0.037905, -0.046655, 0.011592, , , 
1618796509.382781, , , , -0.023614, -0.190310, 0.022903, , , 
1618796509.463047, , , , 0.210106, 0.023267, -0.034880, , , 
1618796509.544985, , , , -0.107048, 0.085185, -0.091959, , , 
1618796509.625809, , , , -0.375175, -0.151917, -0.024381, , , 
1618796509.7064629, , , , 0.068159, -0.024572, -0.047549, , , 
1618796509.7870421, , , , 0.021171, -0.093427, -0.000356, , , 
1618796509.867261, , , , 0.008323, -0.112412, -0.002469, , , 
1618796509.949407, , , , -0.039920, -0.171768, 0.128358, , , 
1618796510.03328, , , , -0.142336, -0.036433, 0.053461, , , 
1618796510.114077, , , , -0.033884, 0.280509, 0.197268, , , 
1618796510.195652, , , , -0.013701, 0.204130, 0.235048, , , 
1618796510.2759051, , , , 0.142764, 0.336788, 0.193678, , , 
1618796510.3566298, , , , 0.268376, 0.117729, 0.058819, , , 
1618796510.438034, , , , -0.296579, 0.244983, -0.532929, , , 
1618796510.519021, , , , -0.768179, 0.005116, -0.025326, , , 
1618796510.6022, , , , -0.424489, 0.281681, 0.037140, , , 
1618796510.683454, , , , -0.034944, -0.166819, 0.002887, , , 
1618796510.764993, , , , -0.126207, 0.057974, -0.008081, , , 
1618796510.846514, , , , -0.034010, 0.068774, -0.035949, , , 
1618796510.929235, , , , -0.057477, -0.037179, 0.004544, , , 
1618796511.01199, , , , 0.010919, -0.012999, -0.021382, , , 
1618796511.095749, , , , -0.012074, -0.047269, -0.012957, , , 
1618796511.1798759, , , , -0.087960, 0.086857, 0.016618, , , 